date,time,millis,ax,ay,az,rollrate,pitchrate,yawrate,roll,pitch,yaw,speed,course,latitude,longitude,altitude,pdop,hdop,vdop,epe,fix,satellites_view,satellites_used,temp
260314,123825300,1395837505119.146,0.2647,-0.657,-9.3843,2.713,0.5565,-18.713,1.8097,3.3195,-41.8803,2.42,324.2,51.039553,13.792498,111.52,2.54,2.35,0.96,4.4,3,7,5,43.6
260314,123825300,1395837505140.156,-0.7158,-0.7844,-9.6099,2.2956,-3.0608,-17.7391,2.0463,3.2085,-42.0175,2.45,329.62,51.039553,13.792498,111.52,2.54,2.35,0.96,4.4,3,7,5,43.6
260314,123825400,1395837505160.5671,-1.6964,-0.3628,-10.767,1.8086,-4.5913,-16.5565,2.2435,3.077,-42.1223,2.45,329.62,51.039553,13.792498,111.52,2.54,2.35,0.96,4.4,3,7,5,43.6
260314,123825400,1395837505172.488,-0.2843,-1.1865,-9.3843,2.713,0.626,-15.4434,2.4332,2.9835,-42.1991,2.45,329.62,51.039553,13.792498,111.52,2.54,2.35,0.96,4.4,3,7,5,43.6
260314,123825400,1395837505190.0151,0.2059,-0.3137,-7.6683,2.8521,0.3478,-15.026,2.6337,2.8762,-42.2685,2.45,329.62,51.039553,13.792498,111.52,2.54,2.35,0.96,4.4,3,7,5,43.6
260314,123825400,1395837505219.126,-0.5687,-0.4216,-9.1588,2.3652,-3.4782,-13.2173,2.859,2.7701,-42.3022,2.45,329.62,51.039555,13.792498,111.54,2.54,2.35,0.96,4.4,3,7,5,43.6
260314,123825400,1395837505239.517,-0.5393,-1.5395,-11.022,2.6434,-4.1739,-12.5217,3.0672,2.6623,-42.3213,2.49,332.11,51.039555,13.792498,111.54,2.54,2.35,0.96,4.4,3,7,5,43.6
260314,123825500,1395837505260.569,-1.0394,-0.402,-9.6197,1.4608,-5.7043,-11.1304,3.3013,2.6405,-42.3089,2.49,332.11,51.039555,13.792498,111.54,2.54,2.35,0.96,4.4,3,7,5,43.6
260314,123825500,1395837505272.4832,-0.8139,-0.6864,-11.0612,1.8086,-6.0521,-10.5043,3.5247,2.5434,-42.2723,2.49,332.11,51.039555,13.792498,111.54,2.54,2.35,0.96,4.4,3,7,5,43.6
260314,123825500,1395837505290.051,-2.0102,-0.3039,-10.3453,1.4608,-2.713,-9.113,3.7744,2.4828,-42.2529,2.49,332.11,51.039555,13.792498,111.54,2.54,2.35,0.96,4.4,3,7,5,43.6
260314,123825500,1395837505319.132,-0.657,-0.9707,-12.1693,2.1565,-1.9478,-8.0,4.0207,2.4495,-42.1895,2.49,332.11,51.039556,13.792498,111.55,2.78,2.6,0.99,4.41,3,7,5,43.6
260314,123825500,1395837505339.442,-0.8531,-2.1181,-9.1098,2.7826,0.3478,-7.0956,4.2548,2.4477,-42.119,2.5,336.5899,51.039556,13.792498,111.55,2.78,2.6,0.99,4.41,3,6,4,43.6
260314,123825600,1395837505360.6228,0.3039,-0.6079,-8.0311,2.5043,0.9739,-6.6086,4.4888,2.4091,-42.0529,2.5,336.5899,51.039556,13.792498,111.55,2.78,2.6,0.99,4.41,3,6,4,43.6
260314,123825600,1395837505372.491,1.7062,-1.667,-10.3061,2.4347,-5.1478,-6.4,4.7317,2.282,-41.9962,2.5,336.5899,51.039556,13.792498,111.55,2.78,2.6,0.99,4.41,3,6,4,43.6
260314,123825600,1395837505390.1418,-2.6574,-2.7162,-10.6003,0.5565,-6.9565,-4.7304,4.9564,2.2162,-41.8919,2.5,336.5899,51.039556,13.792498,111.55,2.78,2.6,0.99,4.41,3,6,4,43.6
260314,123825600,1395837505419.069,-1.971,-1.0982,-11.0416,0.4869,-6.8869,-3.9652,5.1926,2.1833,-41.7969,2.5,336.5899,51.039559,13.792502,111.55,2.54,2.35,0.96,4.4,3,6,4,43.6
260314,123825600,1395837505433.024,0.098,-1.1571,-11.0906,1.6,1.0434,-3.2695,5.4043,2.1145,-41.6871,2.18,354.0,51.039559,13.792502,111.55,2.54,2.35,0.96,4.4,3,7,5,43.6
260314,123825700,1395837505450.677,1.8533,-1.0296,-8.9823,1.4608,0.8347,-2.6434,5.606,2.0491,-41.5418,2.18,354.0,51.039559,13.792502,111.55,2.54,2.35,0.96,4.4,3,7,5,43.6
260314,123825700,1395837505470.0,-0.4412,-2.1573,-9.551,0.2782,-4.6608,-2.0173,5.8489,1.9181,-41.3959,2.18,354.0,51.039559,13.792502,111.55,2.54,2.35,0.96,4.4,3,7,5,43.6
260314,123825700,1395837505490.01,-1.7748,-2.8241,-11.1887,0.0695,-6.5391,-0.9043,6.0781,1.7967,-41.2321,2.18,354.0,51.039559,13.792502,111.55,2.54,2.35,0.96,4.4,3,7,5,43.6
260314,123825700,1395837505519.144,-1.7748,-2.069,-11.2475,-1.3217,-3.2,0.0,8.1114,1.2447,-39.2046,2.18,354.0,51.039561,13.792503,111.57,4.72,3.1,3.55,4.39,3,7,5,43.6
260314,123825700,1395837505532.813,0.4804,-1.7454,-8.5999,-1.4608,0.2086,0.5565,9.7414,0.4161,-37.1125,2.2799,9.33,51.039561,13.792503,111.57,4.72,3.1,3.55,4.39,3,7,5,43.6
260314,123825800,1395837505550.582,-0.098,-1.2845,-9.6687,-2.2956,-6.0521,0.626,10.5621,-0.5651,-35.2494,2.2799,9.33,51.039561,13.792503,111.57,4.72,3.1,3.55,4.39,3,7,5,43.6
260314,123825800,1395837505570.964,-1.3924,-1.3434,-11.1887,-2.0869,-3.2695,0.6956,10.7142,-2.6115,-33.4574,2.2799,9.33,51.039561,13.792503,111.57,4.72,3.1,3.55,4.39,3,7,5,43.6
260314,123825800,1395837505590.084,-0.2647,-1.1571,-9.2078,-2.1565,0.8347,1.0434,9.8173,-2.9889,-31.9545,2.2799,9.33,51.039561,13.792503,111.57,4.72,3.1,3.55,4.39,3,7,5,43.6
260314,123825800,1395837505619.09,-1.5101,-1.4611,-9.0804,-2.6434,-3.2695,1.3913,9.7166,-3.1287,-31.7566,2.2799,9.33,51.039563,13.792508,111.58,4.72,3.1,3.56,4.38,3,7,5,43.6
260314,123825800,1395837505632.8599,-2.2553,-1.6768,-10.7376,-3.8956,-4.8,1.6695,9.6373,-3.1518,-31.5622,2.79,35.87,51.039563,13.792508,111.58,4.72,3.1,3.56,4.38,3,7,5,43.6
260314,123825900,1395837505650.6792,0.0,-1.1865,-9.9237,-3.4782,-0.2086,1.3217,9.4264,-3.2376,-31.357,2.79,35.87,51.039563,13.792508,111.58,4.72,3.1,3.56,4.38,3,7,5,43.6
260314,123825900,1395837505670.1409,0.4608,-0.5197,-9.2569,-3.6869,-2.226,1.8086,9.2325,-3.3119,-31.2443,2.79,35.87,51.039563,13.792508,111.58,4.72,3.1,3.56,4.38,3,7,5,43.6
260314,123825900,1395837505690.093,-1.3042,-0.353,-10.4728,-3.6173,-8.4173,1.5304,8.9143,-3.4474,-31.1377,2.79,35.87,51.039563,13.792508,111.58,4.72,3.1,3.56,4.38,3,7,5,43.6
260314,123825900,1395837505719.1018,0.1961,-0.2843,-9.8943,-3.3391,1.8782,0.626,8.6207,-3.5006,-31.0132,2.79,35.87,51.039567,13.792512,111.58,2.54,2.35,0.96,4.37,3,7,5,43.6
260314,123825900,1395837505738.405,0.8433,0.3726,-8.0017,-4.8,1.0434,0.3478,6.5468,-3.656,-30.1794,3.79,45.39,51.039567,13.792512,111.58,2.54,2.35,0.96,4.37,3,7,5,43.6
260314,123826000,1395837505750.773,-1.5199,0.6962,-11.9437,-4.1043,-8.2782,0.2086,4.2732,-4.0029,-28.8163,3.79,45.39,51.039567,13.792512,111.58,2.54,2.35,0.96,4.37,3,7,5,43.6
260314,123826000,1395837505769.988,-1.8435,-0.3432,-9.4726,-3.7565,7.1652,-0.1391,3.8148,-3.7406,-27.9182,3.79,45.39,51.039567,13.792512,111.58,2.54,2.35,0.96,4.37,3,7,5,43.6
260314,123826000,1395837505790.129,0.7158,0.353,-7.8742,-4.5217,4.5217,-0.1391,3.7695,-3.4744,-27.4125,3.79,45.39,51.039567,13.792512,111.58,2.54,2.35,0.96,4.37,3,7,5,43.6
260314,123826000,1395837505819.067,-1.6278,-0.2745,-11.0023,-3.5478,-8.9043,0.5565,2.1729,-3.4025,-27.1413,3.79,45.39,51.039569,13.792518,111.6,2.54,2.35,0.96,4.37,3,7,5,43.6
260314,123826000,1395837505832.628,-1.6081,-1.0198,-10.3257,-2.226,2.7826,0.4869,1.9469,-3.1707,-26.8148,4.78,55.33,51.039569,13.792518,111.6,2.54,2.35,0.96,4.37,3,7,5,43.6
260314,123826100,1395837505850.7249,1.8827,-0.7746,-8.6979,-2.0869,-0.7652,0.5565,1.4688,-1.5503,-26.5478,4.78,55.33,51.039569,13.792518,111.6,2.54,2.35,0.96,4.37,3,7,5,43.6
260314,123826100,1395837505870.03,-0.9021,-0.4216,-12.2477,-1.4608,-8.2782,1.3913,1.0823,-1.2622,-26.446,4.78,55.33,51.039569,13.792518,111.6,2.54,2.35,0.96,4.37,3,7,5,43.6
260314,123826100,1395837505890.254,2.5299,0.2647,-9.5412,-0.4173,6.2608,0.626,1.12,-1.0272,-26.4136,4.78,55.33,51.039569,13.792518,111.6,2.54,2.35,0.96,4.37,3,7,5,43.6
260314,123826100,1395837505919.603,1.9612,-0.1765,-9.6687,-0.6956,-3.8956,1.113,1.4345,-0.1975,-26.4151,4.78,55.33,51.039571,13.792521,111.62,2.54,2.35,0.96,4.37,3,7,5,43.6
260314,123826100,1395837505936.356,0.3334,0.2647,-11.2769,-0.9043,-2.713,0.9043,1.5599,0.2928,-26.4527,5.33,56.91,51.039571,13.792521,111.62,2.54,2.35,0.96,4.37,3,7,5,43.6
260314,123826200,1395837505951.01,2.1377,0.0,-9.0019,-1.3217,5.2173,0.3478,1.8947,2.5519,-26.9036,5.33,56.91,51.039571,13.792521,111.62,2.54,2.35,0.96,4.37,3,7,5,43.6
260314,123826200,1395837505970.072,1.9121,0.1568,-9.1294,-1.2521,-1.4608,0.4173,1.9925,4.3464,-27.6464,5.33,56.91,51.039571,13.792521,111.62,2.54,2.35,0.96,4.37,3,7,5,43.6
260314,123826200,1395837505990.0032,2.5593,-0.1667,-10.159,-0.4869,1.6695,0.4173,1.4212,6.4462,-28.4361,5.33,56.91,51.039571,13.792521,111.62,2.54,2.35,0.96,4.37,3,7,5,43.6
260314,123826200,1395837506019.5579,1.2453,-0.451,-9.9433,-0.2782,2.0173,0.2782,1.8145,7.5006,-29.1755,5.33,56.91,51.039573,13.792525,111.64,2.54,2.35,0.96,4.36,3,7,5,43.6
260314,123826200,1395837506032.803,1.363,-0.8335,-9.5412,-0.6956,1.4608,0.4173,2.5528,7.177,-29.6139,6.18,56.87,51.039573,13.792525,111.64,2.54,2.35,0.96,4.36,3,7,5,43.6
260314,123826300,1395837506050.75,1.8827,-0.8335,-10.2277,-0.8347,-0.4869,0.5565,3.0624,9.0832,-30.3341,6.18,56.87,51.039573,13.792525,111.64,2.54,2.35,0.96,4.36,3,7,5,43.6
260314,123826300,1395837506070.106,2.8045,-1.1473,-9.3059,-0.2782,3.5478,0.5565,3.105,10.1972,-30.8641,6.18,56.87,51.039573,13.792525,111.64,2.54,2.35,0.96,4.36,3,7,5,43.6
260314,123826300,1395837506090.127,2.4417,-0.9904,-9.2176,-0.8347,-0.8347,0.6956,3.7751,11.7118,-31.4455,6.18,56.87,51.039573,13.792525,111.64,2.54,2.35,0.96,4.36,3,7,5,43.6
260314,123826300,1395837506119.6,2.0396,-0.4804,-10.6984,-1.0434,-2.0869,0.5565,3.0365,11.603,-32.1108,6.18,56.87,51.039578,13.792528,111.66,2.54,2.35,0.96,4.35,3,7,5,43.6
260314,123826300,1395837506132.7878,2.5887,-0.4216,-8.9823,-0.6956,2.9217,0.1391,3.0047,11.606,-32.3565,7.03,52.87,51.039578,13.792528,111.66,2.54,2.35,0.96,4.35,3,7,5,43.6
260314,123826400,1395837506150.75,2.8241,-0.706,-9.0117,-1.1826,-2.5739,-0.1391,3.1959,11.5437,-32.7481,7.03,52.87,51.039578,13.792528,111.66,2.54,2.35,0.96,4.35,3,7,5,43.6
260314,123826400,1395837506170.114,2.6378,-0.4903,-10.1296,-1.6,-1.2521,0.2086,4.0037,12.1127,-33.0361,7.03,52.87,51.039578,13.792528,111.66,2.54,2.35,0.96,4.35,3,7,5,43.6
260314,123826400,1395837506190.418,2.5299,-0.6177,-8.8254,-1.9478,3.0608,-0.1391,3.8542,12.0496,-33.4733,7.03,52.87,51.039578,13.792528,111.66,2.54,2.35,0.96,4.35,3,7,5,43.6
260314,123826400,1395837506219.645,2.2063,-0.5491,-8.796,-1.8782,-2.1565,0.1391,3.6944,11.9021,-33.7632,7.03,52.87,51.03958,13.792531,111.69,2.78,2.6,0.99,4.35,3,7,5,43.6
260314,123826400,1395837506239.784,0.4412,-0.755,-10.8847,-1.6,-5.4956,0.5565,3.4793,11.3558,-34.0085,7.34,51.43,51.03958,13.792531,111.69,2.78,2.6,0.99,4.35,3,6,4,43.6
260314,123826500,1395837506260.5232,1.108,-0.7256,-9.7374,-1.4608,0.5565,0.7652,3.2227,11.1665,-34.0353,7.34,51.43,51.03958,13.792531,111.69,2.78,2.6,0.99,4.35,3,6,4,43.6
260314,123826500,1395837506272.626,2.4319,-0.5393,-8.7175,-1.4608,-4.5913,0.6956,3.166,11.8876,-34.0387,7.34,51.43,51.03958,13.792531,111.69,2.78,2.6,0.99,4.35,3,6,4,43.6
260314,123826500,1395837506290.517,2.4613,-0.2843,-10.2865,-1.3913,-8.4173,0.8347,2.9355,11.7014,-34.2219,7.34,51.43,51.03958,13.792531,111.69,2.78,2.6,0.99,4.35,3,6,4,43.6
260314,123826500,1395837506319.647,1.6964,-0.049,-9.7962,-1.8086,-0.2782,0.5565,2.765,10.742,-34.2647,7.34,51.43,51.039586,13.792535,111.7,2.78,2.6,0.99,4.34,3,6,4,43.6
260314,123826500,1395837506339.467,2.9222,-0.5687,-8.1292,-1.6695,1.3217,0.3478,3.6435,11.5637,-34.1477,8.56,45.03,51.039586,13.792535,111.7,2.78,2.6,0.99,4.34,3,6,4,43.6
260314,123826600,1395837506360.5608,2.3044,-0.5981,-9.5216,-2.1565,-5.8434,0.2782,4.0839,11.5583,-34.3879,8.56,45.03,51.039586,13.792535,111.7,2.78,2.6,0.99,4.34,3,6,4,43.6
260314,123826600,1395837506372.6348,0.5491,-0.5785,-10.9141,-2.1565,-5.0782,0.626,3.8751,11.5762,-34.8032,8.56,45.03,51.039586,13.792535,111.7,2.78,2.6,0.99,4.34,3,6,4,43.6
260314,123826600,1395837506390.1729,2.8731,-0.5589,-9.855,-1.8782,-0.5565,0.626,3.7319,10.9356,-34.7888,8.56,45.03,51.039586,13.792535,111.7,2.78,2.6,0.99,4.34,3,6,4,43.6
260314,123826600,1395837506419.552,1.9219,-0.6962,-8.9136,-1.8782,-1.1826,0.5565,4.0429,11.1684,-34.713,8.56,45.03,51.039593,13.792539,111.71,2.54,2.35,0.96,4.32,3,6,4,43.6
260314,123826600,1395837506433.034,0.9904,-0.3726,-9.6883,-2.0869,-1.6,0.6956,4.1119,10.9859,-34.7087,11.0,39.85,51.039593,13.792539,111.71,2.54,2.35,0.96,4.32,3,7,5,43.6
260314,123826700,1395837506450.784,1.6768,-1.3826,-9.5805,-1.5304,-1.8782,0.7652,3.9405,10.3598,-34.6114,11.0,39.85,51.039593,13.792539,111.71,2.54,2.35,0.96,4.32,3,7,5,43.6
260314,123826700,1395837506470.215,1.363,-0.7942,-8.6881,-1.8086,-4.313,0.8347,3.3402,11.825,-34.6772,11.0,39.85,51.039593,13.792539,111.71,2.54,2.35,0.96,4.32,3,7,5,43.6
260314,123826700,1395837506490.215,2.3632,-0.2255,-10.5807,-1.9478,-6.3304,0.4173,3.1578,10.8749,-34.4664,11.0,39.85,51.039593,13.792539,111.71,2.54,2.35,0.96,4.32,3,7,5,43.6
260314,123826700,1395837506519.6062,1.0198,-0.8433,-10.4042,-1.4608,-0.9043,0.7652,3.4297,9.2916,-34.1819,11.0,39.85,51.039601,13.792547,111.72,2.78,2.6,0.99,4.3,3,7,5,43.59
260314,123826700,1395837506532.862,2.8829,-0.2059,-9.0215,-1.6695,-2.6434,0.626,3.5919,9.7961,-33.7994,15.35,41.4099,51.039601,13.792547,111.72,2.78,2.6,0.99,4.3,3,6,4,43.59
260314,123826800,1395837506550.789,0.9413,-0.1274,-10.463,-1.4608,-5.0782,1.113,3.5675,9.1354,-33.9638,15.35,41.4099,51.039601,13.792547,111.72,2.78,2.6,0.99,4.3,3,6,4,43.59
260314,123826800,1395837506570.116,1.3826,-0.6766,-9.6785,-0.4173,0.2086,1.5304,3.5524,8.6198,-33.9263,15.35,41.4099,51.039601,13.792547,111.72,2.78,2.6,0.99,4.3,3,6,4,43.59
260314,123826800,1395837506590.191,1.5003,-1.0688,-9.0509,-0.2086,-3.6173,1.8782,3.7362,8.4566,-33.8579,15.35,41.4099,51.039601,13.792547,111.72,2.78,2.6,0.99,4.3,3,6,4,43.59
260314,123826800,1395837506619.6238,1.5493,-1.0884,-9.502,-0.9043,-4.8695,1.8086,3.8599,8.2923,-33.7985,15.35,41.4099,51.039607,13.792552,111.74,2.78,2.6,0.99,4.29,3,6,4,43.59
260314,123826800,1395837506632.7769,0.8629,-1.2257,-9.149,-0.8347,-2.226,2.0869,3.9751,7.9666,-33.6905,16.69,38.43,51.039607,13.792552,111.74,2.78,2.6,0.99,4.29,3,6,4,43.59
260314,123826900,1395837506650.872,0.6079,-0.6962,-8.9823,-0.9043,-5.9826,2.0869,4.0611,7.7472,-33.5715,16.69,38.43,51.039607,13.792552,111.74,2.78,2.6,0.99,4.29,3,6,4,43.59
260314,123826900,1395837506670.1309,1.7847,-0.049,-9.3059,-1.3913,-1.6,1.5304,4.1071,7.4799,-33.4605,16.69,38.43,51.039607,13.792552,111.74,2.78,2.6,0.99,4.29,3,6,4,43.59
260314,123826900,1395837506690.1292,0.7158,-1.6081,-8.7273,-0.8347,-1.4608,1.9478,4.208,7.196,-33.3738,16.69,38.43,51.039607,13.792552,111.74,2.78,2.6,0.99,4.29,3,6,4,43.59
260314,123826900,1395837506719.6282,0.2941,-0.1274,-8.8058,-1.6,-3.826,2.0173,4.2248,6.9302,-33.3057,16.69,38.43,51.039612,13.792556,111.78,2.54,2.35,0.96,4.28,3,6,4,43.59
260314,123826900,1395837506732.816,-0.5197,-0.2353,-9.0509,-1.7391,-1.0434,1.4608,4.3096,6.5836,-33.2351,17.5,37.94,51.039612,13.792556,111.78,2.54,2.35,0.96,4.28,3,7,5,43.59
260314,123827000,1395837506750.815,1.059,-1.2551,-9.0607,-1.2521,1.6,1.3913,4.3269,6.2289,-33.1696,17.5,37.94,51.039612,13.792556,111.78,2.54,2.35,0.96,4.28,3,7,5,43.59
260314,123827000,1395837506770.191,0.0882,-0.804,-9.3059,-2.4347,-3.4086,1.1826,4.3908,5.85,-33.0648,17.5,37.94,51.039612,13.792556,111.78,2.54,2.35,0.96,4.28,3,7,5,43.59
260314,123827000,1395837506790.2,-1.8925,-0.6962,-9.7668,-2.7826,-2.3652,1.3217,4.45,5.5267,-32.9523,17.5,37.94,51.039612,13.792556,111.78,2.54,2.35,0.96,4.28,3,7,5,43.59
260314,123827000,1395837506819.586,-2.6672,-1.3042,-10.5611,-2.2956,-1.113,1.3913,4.4266,5.1504,-32.8687,17.5,37.94,51.039617,13.79256,111.82,2.54,2.35,0.96,4.27,3,7,5,43.59
260314,123827000,1395837506832.908,-1.8043,-1.2453,-10.6395,-2.5739,-7.1652,1.4608,4.4397,4.8438,-32.7832,18.09,37.13,51.039617,13.79256,111.82,2.54,2.35,0.96,4.27,3,7,5,43.59
260314,123827100,1395837506851.1838,-2.7358,-0.6177,-12.5811,-2.4347,-7.7217,1.8086,4.4071,4.5506,-32.7116,18.09,37.13,51.039617,13.79256,111.82,2.54,2.35,0.96,4.27,3,7,5,43.59
260314,123827100,1395837506870.283,-1.6179,-0.9511,-10.0904,-2.8521,-4.1043,1.8782,4.4146,4.3703,-32.6315,18.09,37.13,51.039617,13.79256,111.82,2.54,2.35,0.96,4.27,3,7,5,43.59
260314,123827100,1395837506890.172,-1.971,-1.412,-10.9925,-2.5043,-7.1652,2.0173,4.3597,4.1272,-32.5243,18.09,37.13,51.039617,13.79256,111.82,2.54,2.35,0.96,4.27,3,7,5,43.59
260314,123827100,1395837506919.6191,0.5981,-0.0686,-10.4826,-2.1565,-7.513,1.6695,4.3235,4.1172,-32.4254,18.09,37.13,51.03962,13.792564,111.87,4.72,3.1,3.56,4.26,3,7,5,43.59
260314,123827100,1395837506932.7942,1.1865,-0.6962,-9.6687,-2.5043,-1.6695,1.6695,4.3526,4.0149,-32.2742,18.5799,36.78,51.03962,13.792564,111.87,4.72,3.1,3.56,4.26,3,7,5,43.59
260314,123827200,1395837506951.2278,3.0692,-0.6177,-8.9431,-2.226,-2.226,1.3217,4.4331,3.9926,-32.1458,18.5799,36.78,51.03962,13.792564,111.87,4.72,3.1,3.56,4.26,3,7,5,43.59
260314,123827200,1395837506970.208,1.0982,-0.4608,-9.6295,-2.713,-1.2521,1.6,4.4646,3.8139,-32.0632,18.5799,36.78,51.03962,13.792564,111.87,4.72,3.1,3.56,4.26,3,7,5,43.59
260314,123827200,1395837506991.103,-1.3336,-0.2647,-9.2176,-1.6695,1.0434,1.7391,4.3288,3.6976,-32.0161,18.5799,36.78,51.03962,13.792564,111.87,4.72,3.1,3.56,4.26,3,7,5,43.59
260314,123827200,1395837507019.604,-1.5003,-0.6864,-10.1198,-0.9739,-1.6695,1.8086,4.2132,3.6438,-31.9673,18.5799,36.78,51.039625,13.792568,111.92,4.71,3.09,3.56,4.25,3,7,5,43.59
260314,123827200,1395837507039.4238,-2.2455,-0.3922,-10.8552,-1.3913,-4.8,2.226,4.1777,3.6371,-31.8894,19.25,35.6,51.039625,13.792568,111.92,4.71,3.09,3.56,4.25,3,7,5,43.59
260314,123827300,1395837507060.5781,0.8433,-0.353,-10.5022,-1.6,-4.4521,1.8782,4.1472,3.6788,-31.8027,19.25,35.6,51.039625,13.792568,111.92,4.71,3.09,3.56,4.25,3,7,5,43.59
260314,123827300,1395837507072.68,1.4022,-0.4216,-9.8746,-1.6,-2.713,1.7391,4.1128,3.654,-31.7214,19.25,35.6,51.039625,13.792568,111.92,4.71,3.09,3.56,4.25,3,7,5,43.59
260314,123827300,1395837507091.12,1.6768,-0.4804,-9.0804,-1.9478,-2.0869,1.3913,4.1712,3.61,-31.6385,19.25,35.6,51.039625,13.792568,111.92,4.71,3.09,3.56,4.25,3,7,5,43.59
260314,123827300,1395837507119.8672,1.1767,-1.3434,-9.2372,-1.6,0.2086,1.6,4.2078,3.5296,-31.584,19.25,35.6,51.039633,13.792572,111.96,4.72,3.1,3.56,4.22,3,7,5,43.59
260314,123827300,1395837507139.384,-0.2353,-0.5295,-10.2375,-1.7391,0.0695,1.3913,4.1118,3.4077,-31.5511,20.48,33.11,51.039633,13.792572,111.96,4.72,3.1,3.56,4.22,3,7,5,43.59
260314,123827400,1395837507151.839,-0.0686,-0.8531,-9.2765,-1.8086,1.113,0.9739,4.1064,3.3816,-31.5149,20.48,33.11,51.039633,13.792572,111.96,4.72,3.1,3.56,4.22,3,7,5,43.59
260314,123827400,1395837507171.093,-2.4613,-1.0198,-11.1298,-1.8086,-1.113,1.2521,4.1071,3.1925,-31.53,20.48,33.11,51.039633,13.792572,111.96,4.72,3.1,3.56,4.22,3,7,5,43.59
260314,123827400,1395837507190.1619,-1.412,-0.9806,-10.4434,-1.6,-3.3391,1.4608,4.1927,3.0026,-31.4472,20.48,33.11,51.039633,13.792572,111.96,4.72,3.1,3.56,4.22,3,7,5,43.59
260314,123827400,1395837507214.685,-0.3137,-1.1375,-11.022,-2.226,-7.513,1.3217,4.145,2.907,-31.4007,20.48,33.11,51.039638,13.792577,111.98,2.54,2.35,0.96,4.21,3,7,5,43.59
260314,123827400,1395837507230.129,0.4608,-0.6373,-10.4826,-2.5739,-7.0956,0.8347,4.0173,2.9323,-31.357,21.25,32.9099,51.039638,13.792577,111.98,2.54,2.35,0.96,4.21,3,7,5,43.59
260314,123827500,1395837507251.523,2.6378,0.0588,-9.4922,-2.4347,-2.3652,0.1391,3.9571,3.262,-31.3283,21.25,32.9099,51.039638,13.792577,111.98,2.54,2.35,0.96,4.21,3,7,5,43.59
260314,123827500,1395837507270.193,1.7552,-0.7942,-8.5606,-2.0173,-2.1565,0.3478,3.7365,3.1823,-31.2697,21.25,32.9099,51.039638,13.792577,111.98,2.54,2.35,0.96,4.21,3,7,5,43.59
260314,123827500,1395837507290.323,0.3922,-0.3922,-10.1296,-2.0869,-2.1565,0.3478,3.3951,2.4098,-31.0886,21.25,32.9099,51.039638,13.792577,111.98,2.54,2.35,0.96,4.21,3,7,5,43.59
260314,123827500,1395837507319.268,1.7062,-1.0786,-9.3255,-1.9478,3.4086,0.1391,3.3701,2.2933,-31.0078,21.25,32.9099,51.039644,13.792581,112.03,4.72,3.1,3.56,4.2,3,7,5,43.59
260314,123827500,1395837507332.613,-0.6962,-0.3235,-9.1392,-2.0869,0.2086,0.5565,3.2142,1.9354,-30.9365,22.13,32.2,51.039644,13.792581,112.03,4.72,3.1,3.56,4.2,3,7,5,43.59
260314,123827600,1395837507358.805,-0.5295,-0.9904,-11.4142,-2.1565,-2.713,0.4869,3.1409,1.1455,-30.8523,22.13,32.2,51.039644,13.792581,112.03,4.72,3.1,3.56,4.2,3,7,5,43.59
260314,123827600,1395837507370.2778,-2.6378,-1.8239,-10.1296,-2.2956,-1.9478,0.9739,2.6806,0.6796,-30.6484,22.13,32.2,51.039644,13.792581,112.03,4.72,3.1,3.56,4.2,3,7,5,43.59
260314,123827600,1395837507390.085,-3.3046,0.049,-10.7474,-2.5739,-4.8,0.8347,2.8619,1.1388,-30.4748,22.13,32.2,51.039644,13.792581,112.03,4.72,3.1,3.56,4.2,3,7,5,43.59
260314,123827600,1395837507419.2961,-0.2647,-0.5001,-11.5711,-1.7391,-8.2086,0.626,2.8477,0.5558,-30.2927,22.13,32.2,51.03965,13.792586,112.08,2.54,2.35,0.96,4.19,3,7,5,43.59
260314,123827600,1395837507432.937,-1.9317,-1.2159,-10.9337,-2.0173,-7.7217,0.8347,2.8053,0.2696,-30.0913,22.95,32.02,51.03965,13.792586,112.08,2.54,2.35,0.96,4.19,3,7,5,43.59
260314,123827700,1395837507458.172,0.0,0.2549,-10.0021,-1.6695,-5.3565,0.5565,3.2828,0.4181,-29.8428,22.95,32.02,51.03965,13.792586,112.08,2.54,2.35,0.96,4.19,3,7,5,43.59
260314,123827700,1395837507471.121,1.363,0.1863,-10.7474,-1.113,-5.2173,0.3478,3.291,0.2177,-29.5424,22.95,32.02,51.03965,13.792586,112.08,2.54,2.35,0.96,4.19,3,7,5,43.59
260314,123827700,1395837507490.316,2.7456,-0.7942,-9.4432,-0.8347,-5.2173,0.2782,3.022,-0.2355,-29.2339,22.95,32.02,51.03965,13.792586,112.08,2.54,2.35,0.96,4.19,3,7,5,43.59
260314,123827700,1395837507520.9739,1.4022,-0.2353,-9.1392,-1.7391,-4.0347,0.2086,3.7639,0.0964,-29.0171,22.95,32.02,51.039655,13.79259,112.13,2.54,2.35,0.96,4.18,3,7,5,43.59
260314,123827700,1395837507539.4622,1.059,0.353,-8.8744,-2.226,-2.0869,-0.1391,3.5265,0.0434,-29.224,23.31,32.12,51.039655,13.79259,112.13,2.54,2.35,0.96,4.18,3,7,5,43.59
260314,123827800,1395837507554.575,2.1867,0.3334,-9.7668,-1.3913,-0.2782,0.0,3.5335,-1.0929,-29.2978,23.31,32.12,51.039655,13.79259,112.13,2.54,2.35,0.96,4.18,3,7,5,43.59
260314,123827800,1395837507570.344,2.0298,-0.4903,-9.0705,-1.3913,-2.0173,-0.1391,4.0907,-1.1122,-29.3567,23.31,32.12,51.039655,13.79259,112.13,2.54,2.35,0.96,4.18,3,7,5,43.59
260314,123827800,1395837507590.2842,1.9612,-0.3334,-9.3843,-1.3217,-0.2086,-0.5565,3.9917,-1.4819,-28.9671,23.31,32.12,51.039655,13.79259,112.13,2.54,2.35,0.96,4.18,3,7,5,43.59
260314,123827800,1395837507619.288,1.6474,-0.2255,-8.9431,-1.1826,-0.3478,-0.2782,3.7922,-0.8961,-28.6139,23.31,32.12,51.03966,13.792595,112.18,2.54,2.35,0.96,4.17,3,7,5,43.59
260314,123827800,1395837507632.665,1.363,-0.7844,-9.3549,-1.6,-1.1826,-0.3478,4.3904,-1.0843,-28.5406,23.77,32.05,51.03966,13.792595,112.18,2.54,2.35,0.96,4.17,3,7,5,43.59
260314,123827900,1395837507651.186,0.7648,-0.7452,-8.796,-1.6695,0.4869,-0.3478,4.1109,-1.8362,-28.4996,23.77,32.05,51.03966,13.792595,112.18,2.54,2.35,0.96,4.17,3,7,5,43.59
260314,123827900,1395837507670.308,1.0296,-1.0002,-9.149,-0.9739,-0.4869,0.0,2.9758,-1.942,-28.1585,23.77,32.05,51.03966,13.792595,112.18,2.54,2.35,0.96,4.17,3,7,5,43.59
260314,123827900,1395837507690.156,0.6962,-0.5197,-9.6589,-1.3913,-1.2521,-0.1391,3.6564,-2.2153,-27.9453,23.77,32.05,51.03966,13.792595,112.18,2.54,2.35,0.96,4.17,3,7,5,43.59
260314,123827900,1395837507719.299,0.1176,-1.1375,-9.3157,-1.4608,-0.626,0.0,4.0421,-2.0129,-27.9095,23.77,32.05,51.039665,13.7926,112.23,2.54,2.35,0.96,4.16,3,7,5,43.59
260314,123827900,1395837507732.668,1.3924,-1.4218,-9.6589,-1.2521,-2.8521,0.2086,3.5684,-2.372,-28.0962,24.76,32.65,51.039665,13.7926,112.23,2.54,2.35,0.96,4.16,3,7,5,43.59
260314,123828000,1395837507754.929,0.7354,-0.755,-9.4138,-1.6,-0.5565,0.2086,4.0785,-2.2887,-28.2878,24.76,32.65,51.039665,13.7926,112.23,2.54,2.35,0.96,4.16,3,7,5,43.59
260314,123828000,1395837507770.36,0.5393,-1.0492,-9.6981,-1.9478,-3.9652,0.2086,4.501,-2.2078,-28.5093,24.76,32.65,51.039665,13.7926,112.23,2.54,2.35,0.96,4.16,3,7,5,43.59
260314,123828000,1395837507792.864,0.6864,-0.4412,-9.9727,-2.0869,-1.4608,0.1391,4.0779,-3.2808,-28.6833,24.76,32.65,51.039665,13.7926,112.23,2.54,2.35,0.96,4.16,3,7,5,43.59
260314,123828000,1395837507819.612,0.9217,-0.6275,-8.8352,-1.7391,-0.2782,-0.3478,4.0391,-2.8384,-28.681,24.76,32.65,51.03967,13.792604,112.28,2.54,2.35,0.96,4.15,3,7,5,43.59
260314,123828000,1395837507832.896,-0.5687,-0.3628,-9.2372,-1.5304,-5.0782,0.4173,3.5479,-3.296,-28.6166,25.53,32.85,51.03967,13.792604,112.28,2.54,2.35,0.96,4.15,3,7,5,43.59
260314,123828100,1395837507856.909,-1.01,-0.7256,-9.5412,-1.6,-5.7739,-0.0695,4.0757,-2.924,-28.5957,25.53,32.85,51.03967,13.792604,112.28,2.54,2.35,0.96,4.15,3,7,5,43.59
260314,123828100,1395837507870.275,0.7942,-0.3628,-8.5606,-1.5304,-2.9913,-0.2086,3.4555,-3.5382,-28.3845,25.53,32.85,51.03967,13.792604,112.28,2.54,2.35,0.96,4.15,3,7,5,43.59
260314,123828100,1395837507890.309,0.2647,-0.7746,-9.551,-1.5304,-6.6782,-0.2782,3.4109,-2.942,-28.183,25.53,32.85,51.03967,13.792604,112.28,2.54,2.35,0.96,4.15,3,7,5,43.59
260314,123828100,1395837507919.4019,-0.8923,-0.4706,-11.2181,-2.5739,-6.5391,0.0695,3.7598,-3.6828,-28.1754,25.53,32.85,51.039676,13.792609,112.33,2.54,2.35,0.96,4.14,3,7,5,43.59
260314,123828100,1395837507932.683,-1.9612,0.0588,-10.8749,-2.9217,-4.3826,-0.4173,3.7599,-4.1376,-28.0787,25.94,32.72,51.039676,13.792609,112.33,2.54,2.35,0.96,4.14,3,7,5,43.59
260314,123828200,1395837507959.1812,-3.2948,0.1372,-10.1688,-2.3652,-4.1739,-0.1391,3.5632,-3.8778,-27.9707,25.94,32.72,51.039676,13.792609,112.33,2.54,2.35,0.96,4.14,3,7,5,43.59
260314,123828200,1395837507979.594,-2.4319,-0.6373,-11.4436,-1.6695,-7.2347,0.2782,3.4828,-3.3272,-27.8952,25.94,32.72,51.039676,13.792609,112.33,2.54,2.35,0.96,4.14,3,7,5,43.59
260314,123828200,1395837507990.4648,-0.4314,-0.5883,-10.9827,-1.3217,-4.4521,0.2782,3.6451,-3.6123,-27.9089,25.94,32.72,51.039676,13.792609,112.33,2.54,2.35,0.96,4.14,3,7,5,43.59
260314,123828200,1395837508019.0662,-0.4216,0.5589,-11.3455,-0.9739,-2.7826,0.6956,3.5959,-3.3091,-27.9482,25.94,32.72,51.039681,13.792613,112.37,4.71,3.09,3.55,4.13,3,7,5,43.59
260314,123828200,1395837508033.67,-0.2059,-1.0002,-10.4238,-0.6956,1.3217,0.4869,3.9727,-4.0187,-27.9661,26.47,32.86,51.039681,13.792613,112.37,4.71,3.09,3.55,4.13,3,7,5,43.59
260314,123828300,1395837508051.436,-0.4706,-1.3826,-9.502,-0.8347,0.4869,0.5565,4.2168,-4.0582,-28.0724,26.47,32.86,51.039681,13.792613,112.37,4.71,3.09,3.55,4.13,3,7,5,43.59
260314,123828300,1395837508070.38,-0.6962,0.3137,-10.0806,-1.6,1.4608,0.6956,3.6548,-3.5687,-28.272,26.47,32.86,51.039681,13.792613,112.37,4.71,3.09,3.55,4.13,3,7,5,43.59
260314,123828300,1395837508090.354,1.4218,-0.3922,-7.9134,-0.626,5.8434,0.1391,3.0757,-3.9383,-28.368,26.47,32.86,51.039681,13.792613,112.37,4.71,3.09,3.55,4.13,3,7,5,43.59
260314,123828300,1395837508119.08,1.9219,-1.1963,-8.5508,-0.626,1.0434,0.5565,3.6423,-4.6164,-28.4244,26.47,32.86,51.039688,13.792619,112.4,2.78,2.6,0.99,4.13,3,7,5,43.59
260314,123828300,1395837508132.726,-1.0688,-1.9219,-8.5802,-1.3217,-2.9913,0.6956,3.6683,-3.8566,-28.4435,27.41,32.85,51.039688,13.792619,112.4,2.78,2.6,0.99,4.13,3,6,4,43.59
260314,123828400,1395837508151.341,-2.1475,-1.1767,-10.8847,-0.9739,-6.3304,-0.0695,3.3171,-3.8934,-28.3419,27.41,32.85,51.039688,13.792619,112.4,2.78,2.6,0.99,4.13,3,6,4,43.59
260314,123828400,1395837508170.371,-2.9222,0.2059,-9.7472,-3.1304,-2.6434,-0.0695,3.6999,-4.1997,-28.3738,27.41,32.85,51.039688,13.792619,112.4,2.78,2.6,0.99,4.13,3,6,4,43.59
260314,123828400,1395837508190.36,0.4804,-0.3432,-12.2281,-2.4347,-3.7565,-0.5565,4.026,-4.0187,-28.4053,27.41,32.85,51.039688,13.792619,112.4,2.78,2.6,0.99,4.13,3,6,4,43.59
260314,123828400,1395837508219.104,-1.3826,-0.3726,-10.4238,-2.226,-0.6956,0.2086,3.2176,-4.1169,-28.6338,27.41,32.85,51.039693,13.792625,112.43,2.54,2.35,0.96,4.12,3,6,4,43.59
260314,123828400,1395837508232.7349,-0.8629,-0.3628,-11.0318,-1.3913,-0.6956,0.0695,3.0064,-4.2537,-29.0404,27.53,32.6599,51.039693,13.792625,112.43,2.54,2.35,0.96,4.12,3,7,5,43.59
260314,123828500,1395837508251.246,1.2159,-0.8237,-8.1096,-1.5304,4.1739,0.2782,2.9898,-2.6601,-29.1414,27.53,32.6599,51.039693,13.792625,112.43,2.54,2.35,0.96,4.12,3,7,5,43.59
260314,123828500,1395837508270.123,2.3926,0.402,-8.2468,-1.6,3.0608,0.626,3.8225,-3.0397,-29.3034,27.53,32.6599,51.039693,13.792625,112.43,2.54,2.35,0.96,4.12,3,7,5,43.59
260314,123828500,1395837508290.322,0.3137,-2.1965,-9.5608,-1.0434,-5.913,0.0,3.539,-3.4695,-29.2939,27.53,32.6599,51.039693,13.792625,112.43,2.54,2.35,0.96,4.12,3,7,5,43.59
260314,123828500,1395837508319.1099,-2.1671,-0.0784,-12.3556,-2.0173,-9.8086,0.0695,3.6387,-2.9559,-29.3635,27.53,32.6599,51.0397,13.792631,112.46,2.78,2.6,0.99,4.12,3,7,5,43.59
260314,123828500,1395837508332.8208,-0.0392,0.6471,-12.2085,-2.6434,1.5304,-0.626,2.9518,-3.7233,-29.3066,28.59,32.89,51.0397,13.792631,112.46,2.78,2.6,0.99,4.12,3,6,4,43.59
260314,123828600,1395837508359.071,-2.2259,-1.0982,-9.5314,-1.7391,-2.5739,0.0,2.7624,-3.1561,-29.3515,28.59,32.89,51.0397,13.792631,112.46,2.78,2.6,0.99,4.12,3,6,4,43.59
260314,123828600,1395837508379.599,-1.971,0.2255,-10.4336,-2.0173,-0.2782,0.8347,3.696,-3.4764,-29.4829,28.59,32.89,51.0397,13.792631,112.46,2.78,2.6,0.99,4.12,3,6,4,43.59
260314,123828600,1395837508390.4941,0.6962,-0.2647,-9.7374,-1.1826,0.7652,0.5565,3.3012,-3.0382,-29.5086,28.59,32.89,51.0397,13.792631,112.46,2.78,2.6,0.99,4.12,3,6,4,43.59
260314,123828600,1395837508418.642,1.8827,-1.363,-9.4138,-1.2521,-9.1826,0.2086,2.9969,-2.5331,-29.6602,28.59,32.89,51.039707,13.792636,112.5,4.72,3.09,3.56,4.1,3,6,4,43.59
260314,123828600,1395837508440.094,-2.677,-0.0588,-10.4238,-2.1565,-11.3391,0.3478,2.9604,-3.2418,-30.0211,29.16,32.14,51.039707,13.792636,112.5,4.72,3.09,3.56,4.1,3,7,5,43.59
260314,123828700,1395837508453.061,-2.2259,0.4412,-11.5515,-1.8782,-1.0434,0.2782,3.1701,-3.6708,-30.16,29.16,32.14,51.039707,13.792636,112.5,4.72,3.09,3.56,4.1,3,7,5,43.59
260314,123828700,1395837508470.4248,1.0002,-0.9609,-9.855,-0.9739,3.5478,0.1391,3.3404,-4.7929,-30.3158,29.16,32.14,51.039707,13.792636,112.5,4.72,3.09,3.56,4.1,3,7,5,43.59
260314,123828700,1395837508490.419,-0.0882,-2.0004,-8.9921,-0.9043,0.0,0.5565,2.6048,-4.7499,-30.4344,29.16,32.14,51.039707,13.792636,112.5,4.72,3.09,3.56,4.1,3,7,5,43.59
260314,123828700,1395837508519.094,2.0788,-0.9021,-7.5702,-1.2521,-4.8,-0.2086,2.711,-4.3947,-30.6158,29.16,32.14,51.039715,13.792642,112.53,4.72,3.09,3.56,4.08,3,7,5,43.58
260314,123828700,1395837508532.731,-2.3534,0.0294,-11.5613,-1.8782,-7.3739,0.1391,2.3833,-5.7475,-30.7963,30.4,31.58,51.039715,13.792642,112.53,4.72,3.09,3.56,4.08,3,7,5,43.58
260314,123828800,1395837508559.03,-1.0492,0.0392,-10.2179,-1.6,3.8956,-0.2086,3.0918,-5.4138,-30.6735,30.4,31.58,51.039715,13.792642,112.53,4.72,3.09,3.56,4.08,3,7,5,43.58
260314,123828800,1395837508579.5679,-1.7748,-0.4804,-9.4138,-1.3217,5.0086,0.4869,3.4385,-5.7831,-30.3525,30.4,31.58,51.039715,13.792642,112.53,4.72,3.09,3.56,4.08,3,7,5,43.58
260314,123828800,1395837508590.495,-0.8139,-0.7452,-9.3451,-1.6695,-4.8695,0.6956,3.7049,-5.0086,-30.1406,30.4,31.58,51.039715,13.792642,112.53,4.72,3.09,3.56,4.08,3,7,5,43.58
260314,123828800,1395837508619.139,-2.02,-0.0294,-11.6201,-2.4347,-13.2173,0.3478,3.3984,-4.84,-30.1013,30.4,31.58,51.039723,13.792648,112.58,4.72,3.09,3.56,4.07,3,7,5,43.58
260314,123828800,1395837508632.9082,-0.5491,0.4608,-10.9043,-0.9043,-0.9739,0.4173,2.0719,-4.3408,-30.7285,31.34,30.97,51.039723,13.792648,112.58,4.72,3.09,3.56,4.07,3,7,5,43.58
260314,123828900,1395837508651.262,0.9904,-0.1961,-8.8842,-0.5565,4.313,-0.1391,2.231,-4.0789,-31.0098,31.34,30.97,51.039723,13.792648,112.58,4.72,3.09,3.56,4.07,3,7,5,43.58
260314,123828900,1395837508670.441,-0.9904,-1.1473,-9.2667,-1.0434,-3.2695,0.2782,2.5668,-2.7952,-31.3993,31.34,30.97,51.039723,13.792648,112.58,4.72,3.09,3.56,4.07,3,7,5,43.58
260314,123828900,1395837508690.387,-2.422,-0.2255,-11.8457,-2.5739,-9.5304,0.4173,3.1677,-2.6218,-31.7684,31.34,30.97,51.039723,13.792648,112.58,4.72,3.09,3.56,4.07,3,7,5,43.58
260314,123828900,1395837508719.1492,-2.6966,-1.1963,-12.336,-2.1565,-7.026,0.8347,3.336,-3.0175,-32.1682,31.34,30.97,51.03973,13.792655,112.62,4.71,3.09,3.55,4.06,3,7,5,43.58
260314,123828900,1395837508732.765,0.451,-0.9413,-8.9235,-1.0434,0.6956,0.6956,2.9573,-2.0849,-32.2718,31.9,31.03,51.03973,13.792655,112.62,4.71,3.09,3.55,4.06,3,7,5,43.58
260314,123829000,1395837508753.959,1.1571,-0.6962,-8.0507,-1.4608,-5.426,0.1391,3.7571,-1.7523,-32.4277,31.9,31.03,51.03973,13.792655,112.62,4.71,3.09,3.55,4.06,3,7,5,43.58
260314,123829000,1395837508770.48,-1.9317,-0.5687,-12.3556,-1.9478,-18.1565,0.1391,3.9978,-1.6172,-31.5257,31.9,31.03,51.03973,13.792655,112.62,4.71,3.09,3.55,4.06,3,7,5,43.58
260314,123829000,1395837508790.4119,-1.1669,-0.4804,-10.8651,-1.7391,-1.7391,0.2782,3.8266,-1.5827,-31.2004,31.9,31.03,51.03973,13.792655,112.62,4.71,3.09,3.55,4.06,3,7,5,43.58
260314,123829000,1395837508818.692,1.4709,-0.4216,-7.7761,-1.6695,3.2,0.0695,4.3069,-0.7218,-30.9983,31.9,31.03,51.039737,13.792661,112.65,4.72,3.09,3.56,4.06,3,7,5,43.58
260314,123829000,1395837508840.099,0.3922,-1.0394,-9.6393,-1.9478,-10.9217,0.4869,4.2698,-0.0513,-30.7115,32.21,30.99,51.039737,13.792661,112.65,4.72,3.09,3.56,4.06,3,7,5,43.58
260314,123829100,1395837508856.123,-0.3726,-0.6766,-12.0222,-1.8086,-7.8608,0.5565,3.8476,-0.1116,-30.5083,32.21,30.99,51.039737,13.792661,112.65,4.72,3.09,3.56,4.06,3,7,5,43.58
260314,123829100,1395837508870.473,1.6179,-0.2843,-9.1784,-1.0434,2.226,0.3478,2.7431,1.6443,-30.368,32.21,30.99,51.039737,13.792661,112.65,4.72,3.09,3.56,4.06,3,7,5,43.58
260314,123829100,1395837508890.443,1.0688,0.353,-7.58,-1.5304,-0.5565,-0.1391,2.545,2.4202,-30.2098,32.21,30.99,51.039737,13.792661,112.65,4.72,3.09,3.56,4.06,3,7,5,43.58
260314,123829100,1395837508919.146,-0.7746,-0.3432,-9.9237,-1.7391,-5.1478,-0.3478,3.5549,2.3416,-30.1297,32.21,30.99,51.039744,13.792668,112.68,4.72,3.1,3.56,4.06,3,7,5,43.58
260314,123829100,1395837508932.8252,0.1568,-0.7746,-10.5316,-1.4608,-1.3913,-0.0695,3.5931,3.6877,-30.2144,32.83,31.31,51.039744,13.792668,112.68,4.72,3.1,3.56,4.06,3,7,5,43.58
260314,123829200,1395837508955.401,0.6766,-0.9119,-9.3255,-1.8782,4.8695,0.2086,3.5897,4.3739,-30.4606,32.83,31.31,51.039744,13.792668,112.68,4.72,3.1,3.56,4.06,3,7,5,43.58
260314,123829200,1395837508970.4949,1.5493,-0.7746,-7.884,-1.5304,4.4521,0.0695,2.906,7.4953,-30.3245,32.83,31.31,51.039744,13.792668,112.68,4.72,3.1,3.56,4.06,3,7,5,43.58
260314,123829200,1395837508990.188,1.4022,-0.5393,-10.3257,-1.5304,-4.1739,0.3478,3.0409,7.2527,-30.2663,32.83,31.31,51.039744,13.792668,112.68,4.72,3.1,3.56,4.06,3,7,5,43.58
260314,123829200,1395837509019.168,2.1475,-0.3628,-10.6591,-0.9739,0.9043,0.3478,2.5637,8.3499,-30.4542,32.83,31.31,51.039752,13.792675,112.71,4.72,3.09,3.56,4.06,3,7,5,43.58
260314,123829200,1395837509032.882,2.2357,-0.1078,-8.7175,-1.4608,5.0782,0.0,2.9387,9.8842,-30.7478,33.54,31.59,51.039752,13.792675,112.71,4.72,3.09,3.56,4.06,3,7,5,43.58
260314,123829300,1395837509050.872,3.2752,-0.0588,-8.5116,-2.0173,2.5043,-0.2782,3.1267,10.3592,-31.2688,33.54,31.59,51.039752,13.792675,112.71,4.72,3.09,3.56,4.06,3,7,5,43.58
260314,123829300,1395837509070.506,1.5689,-0.8531,-9.9335,-1.5304,-2.2956,-0.1391,3.0269,9.9201,-31.6593,33.54,31.59,51.039752,13.792675,112.71,4.72,3.09,3.56,4.06,3,7,5,43.58
260314,123829300,1395837509090.172,1.5591,-0.5883,-10.816,-1.5304,-1.7391,0.2782,2.5988,10.3497,-31.837,33.54,31.59,51.039752,13.792675,112.71,4.72,3.09,3.56,4.06,3,7,5,43.58
260314,123829300,1395837509119.126,2.0396,-0.6373,-9.5412,-1.3217,2.7826,0.3478,2.8757,11.494,-31.4033,33.54,31.59,51.039759,13.792682,112.74,4.72,3.1,3.56,4.05,3,7,5,43.58
260314,123829300,1395837509132.873,3.2948,-0.3039,-8.3547,-1.2521,2.226,-0.0695,2.4976,12.607,-31.573,33.87,31.37,51.039759,13.792682,112.74,4.72,3.1,3.56,4.05,3,7,5,43.58
260314,123829400,1395837509151.556,2.4024,-0.3334,-9.5216,-1.113,-4.4521,-0.1391,2.3229,12.4392,-31.6124,33.87,31.37,51.039759,13.792682,112.74,4.72,3.1,3.56,4.05,3,7,5,43.58
260314,123829400,1395837509170.489,0.8433,-0.4314,-11.5024,-1.3913,-4.313,0.0,2.9819,12.1175,-31.6786,33.87,31.37,51.039759,13.792682,112.74,4.72,3.1,3.56,4.05,3,7,5,43.58
260314,123829400,1395837509190.219,2.6868,-0.1176,-9.5412,-2.0173,4.6608,0.0,2.8427,12.5693,-32.1348,33.87,31.37,51.039759,13.792682,112.74,4.72,3.1,3.56,4.05,3,7,5,43.58
260314,123829400,1395837509219.1829,1.6768,-0.5785,-7.9527,-2.1565,2.8521,0.0,3.5212,11.9255,-32.2662,33.87,31.37,51.039768,13.792689,112.76,4.71,3.09,3.56,4.05,3,7,5,43.58
260314,123829400,1395837509232.84,3.4223,-0.402,-9.5903,-1.3913,-5.1478,0.2782,3.2377,12.3582,-32.5698,34.25,31.09,51.039768,13.792689,112.76,4.71,3.09,3.56,4.05,3,7,5,43.58
260314,123829500,1395837509259.144,1.8337,-0.3628,-10.4924,-1.6695,-4.5217,-0.2782,2.2304,10.8981,-32.7675,34.25,31.09,51.039768,13.792689,112.76,4.71,3.09,3.56,4.05,3,7,5,43.58
260314,123829500,1395837509270.5532,1.3434,-0.5001,-10.0806,-1.2521,0.2086,0.1391,2.7216,10.7795,-32.4899,34.25,31.09,51.039768,13.792689,112.76,4.71,3.09,3.56,4.05,3,7,5,43.58
260314,123829500,1395837509290.47,2.1671,-0.1078,-10.8749,-0.9739,-5.0086,0.3478,2.2285,12.1301,-32.6447,34.25,31.09,51.039768,13.792689,112.76,4.71,3.09,3.56,4.05,3,7,5,43.58
260314,123829500,1395837509319.378,1.5395,-0.9021,-10.3649,-0.2086,-4.9391,0.4173,1.9719,11.6951,-32.7341,34.25,31.09,51.039776,13.792695,112.8,4.71,3.09,3.56,4.04,3,7,5,43.58
260314,123829500,1395837509332.8591,2.4319,0.3235,-8.8744,-1.2521,-3.4086,0.0695,2.5258,12.5717,-32.8162,34.74,30.48,51.039776,13.792695,112.8,4.71,3.09,3.56,4.04,3,7,5,43.58
260314,123829600,1395837509351.9148,2.8927,-0.5295,-10.0904,-0.9739,-6.3304,0.0695,3.4142,12.325,-32.9472,34.74,30.48,51.039776,13.792695,112.8,4.71,3.09,3.56,4.04,3,7,5,43.58
260314,123829600,1395837509370.2158,0.3235,-0.9119,-10.3748,-1.6,-7.2347,0.2782,3.3881,11.2483,-33.192,34.74,30.48,51.039776,13.792695,112.8,4.71,3.09,3.56,4.04,3,7,5,43.58
260314,123829600,1395837509390.518,2.0298,-0.6766,-10.6297,-1.7391,-4.5217,0.3478,3.6931,11.8986,-33.3257,34.74,30.48,51.039776,13.792695,112.8,4.71,3.09,3.56,4.04,3,7,5,43.58
260314,123829600,1395837509420.0151,2.7064,-0.353,-9.3941,-1.2521,-2.5043,0.2086,3.4294,11.1211,-33.3999,34.74,30.48,51.039785,13.792703,112.83,4.71,3.09,3.55,4.02,3,7,5,43.58
260314,123829600,1395837509440.575,1.1375,-0.5295,-10.4336,-1.2521,-6.1913,0.0695,3.2087,10.1908,-33.3218,35.57,30.46,51.039785,13.792703,112.83,4.71,3.09,3.55,4.02,3,7,5,43.58
260314,123829700,1395837509459.966,2.4711,-0.6668,-9.0117,-1.5304,-2.1565,-0.1391,3.5522,10.7373,-33.3635,35.57,30.46,51.039785,13.792703,112.83,4.71,3.09,3.55,4.02,3,7,5,43.58
260314,123829700,1395837509480.0872,0.9609,-0.0098,-10.061,-1.8782,-5.2173,-0.0695,2.9549,9.2658,-33.4721,35.57,30.46,51.039785,13.792703,112.83,4.71,3.09,3.55,4.02,3,7,5,43.58
260314,123829700,1395837509500.117,2.2259,-0.5491,-9.6785,-1.6,-2.0173,0.0695,3.2974,11.4874,-33.4831,35.57,30.46,51.039785,13.792703,112.83,4.71,3.09,3.55,4.02,3,7,5,43.58
260314,123829700,1395837509517.508,2.7751,-0.8433,-8.5999,-1.113,0.1391,0.5565,3.6225,11.7413,-33.4965,35.57,30.46,51.039794,13.79271,112.87,4.71,3.09,3.56,4.01,3,7,5,43.58
260314,123829700,1395837509539.492,1.3924,-0.5687,-9.8844,-0.6956,-3.2,0.8347,3.1567,9.996,-33.005,36.2299,30.35,51.039794,13.79271,112.87,4.71,3.09,3.56,4.01,3,7,5,43.58
260314,123829800,1395837509559.949,2.324,-0.3334,-9.6981,-1.0434,-2.0173,0.3478,3.5608,11.4537,-32.3687,36.2299,30.35,51.039794,13.79271,112.87,4.71,3.09,3.56,4.01,3,7,5,43.58
260314,123829800,1395837509580.098,1.8827,-0.6177,-8.7862,-0.7652,0.5565,0.6956,3.784,9.8443,-31.9621,36.2299,30.35,51.039794,13.79271,112.87,4.71,3.09,3.56,4.01,3,7,5,43.58
260314,123829800,1395837509600.081,1.8141,-0.3824,-9.0019,-0.4869,-3.3391,0.626,3.2016,10.5108,-31.8738,36.2299,30.35,51.039794,13.79271,112.87,4.71,3.09,3.56,4.01,3,7,5,43.58
260314,123829800,1395837509617.795,2.5887,-0.4608,-8.9235,-0.4869,1.3913,0.2782,3.1501,10.9335,-31.6898,36.2299,30.35,51.039801,13.792717,112.93,4.71,3.09,3.56,4.0,3,7,5,43.58
260314,123829800,1395837509639.4292,3.2654,-0.7942,-7.7369,-0.1391,4.5913,0.2782,2.9723,11.0128,-31.726,36.36,30.22,51.039801,13.792717,112.93,4.71,3.09,3.56,4.0,3,7,5,43.58
260314,123829900,1395837509651.438,2.7162,-0.1176,-8.443,-0.4869,-0.4173,0.1391,2.7602,11.4269,-31.9679,36.36,30.22,51.039801,13.792717,112.93,4.71,3.09,3.56,4.0,3,7,5,43.58
260314,123829900,1395837509670.486,2.0298,-0.7158,-10.11,-0.626,1.113,0.0695,2.9484,10.6854,-32.1482,36.36,30.22,51.039801,13.792717,112.93,4.71,3.09,3.56,4.0,3,7,5,43.58
260314,123829900,1395837509690.5051,2.1083,-0.2647,-7.8448,-0.8347,4.8695,-0.0695,2.7671,11.1168,-32.4178,36.36,30.22,51.039801,13.792717,112.93,4.71,3.09,3.56,4.0,3,7,5,43.58
260314,123829900,1395837509715.9531,2.2455,-0.4314,-9.3255,-1.3913,-2.3652,-0.0695,3.3039,11.4682,-32.6147,36.36,30.22,51.03981,13.792724,112.93,4.72,3.09,3.56,3.98,3,7,5,43.58
260314,123829900,1395837509740.8591,1.6964,-0.1667,-11.2573,-1.8086,-1.113,-0.5565,2.7605,11.1271,-32.9306,37.22,30.24,51.03981,13.792724,113.06,4.72,3.09,3.56,3.98,3,7,5,43.58
260314,123830000,1395837509759.978,2.0886,-0.8629,-9.7374,-0.8347,-1.0434,-0.1391,3.2977,12.2946,-32.9777,37.22,30.24,51.03981,13.792724,113.06,4.72,3.09,3.56,3.98,3,7,5,43.58
260314,123830000,1395837509780.118,1.2649,-0.4412,-9.7177,-1.4608,-4.6608,0.0,3.3011,11.5327,-33.1404,37.22,30.24,51.03981,13.792724,113.06,4.72,3.09,3.56,3.98,3,7,5,43.58
260314,123830000,1395837509799.9958,2.5593,-0.6668,-9.2078,-1.6,-2.226,-0.0695,3.8421,12.907,-32.9049,37.22,30.24,51.03981,13.792724,113.06,4.72,3.09,3.56,3.98,3,7,5,43.58
260314,123830000,1395837509819.204,2.4711,-0.2353,-9.4824,-1.8782,-4.6608,-0.1391,2.9479,13.4857,-32.8479,37.22,30.24,51.039818,13.792732,113.06,4.71,3.09,3.56,3.96,3,7,5,43.58
260314,123830000,1395837509839.5022,1.5199,-0.4118,-10.0512,-1.6695,-4.2434,-0.1391,3.2196,11.6701,-32.6165,37.54,30.0,51.039818,13.792732,113.25,4.71,3.09,3.56,3.96,3,7,5,43.58
260314,123830100,1395837509851.486,1.9219,-0.5687,-10.2865,-1.8086,-4.3826,-0.1391,3.1541,11.1606,-32.2547,37.54,30.0,51.039818,13.792732,113.25,4.71,3.09,3.56,3.96,3,7,5,43.58
260314,123830100,1395837509870.836,1.2355,-0.6275,-9.6197,-1.4608,-1.1826,-0.2086,2.9862,11.1679,-32.0195,37.54,30.0,51.039818,13.792732,113.25,4.71,3.09,3.56,3.96,3,7,5,43.58
260314,123830100,1395837509890.562,2.5201,-0.4804,-9.2667,-2.0869,-3.8956,-0.2782,3.4702,12.5704,-31.7247,37.54,30.0,51.039818,13.792732,113.25,4.71,3.09,3.56,3.96,3,7,5,43.58
260314,123830100,1395837509916.923,1.7062,-0.2647,-9.6393,-1.4608,-5.1478,-0.0695,2.0978,11.7553,-31.9148,37.54,30.0,51.039825,13.792739,113.25,4.71,3.09,3.55,3.95,3,7,5,43.58
260314,123830100,1395837509940.096,0.6177,-0.1961,-9.5707,-1.5304,-4.9391,-0.4173,2.705,9.8032,-31.454,37.85,29.83,51.039825,13.792739,113.42,4.71,3.09,3.55,3.95,3,7,5,43.58
260314,123830200,1395837509961.141,1.3728,-0.0784,-9.4628,-1.3913,-0.6956,-0.6956,2.4091,7.4909,-30.9669,37.85,29.83,51.039825,13.792739,113.42,4.71,3.09,3.55,3.95,3,7,5,43.58
260314,123830200,1395837509979.5078,2.5789,0.0,-8.7371,-1.7391,-2.9913,-0.7652,3.2188,9.3929,-30.4736,37.85,29.83,51.039825,13.792739,113.42,4.71,3.09,3.55,3.95,3,7,5,43.58
260314,123830200,1395837509990.616,0.7648,-0.7354,-10.2571,-2.2956,-2.7826,-0.7652,3.5007,8.5706,-30.5765,37.85,29.83,51.039825,13.792739,113.42,4.71,3.09,3.55,3.95,3,7,5,43.58
260314,123830200,1395837510017.0269,0.3039,-0.0392,-9.8746,-2.1565,-4.6608,-0.0695,2.8689,6.959,-30.0004,37.85,29.83,51.039833,13.792746,113.42,4.72,3.09,3.56,3.93,3,7,5,43.58
260314,123830200,1395837510040.087,-0.804,-0.5295,-10.9239,-1.4608,-5.2173,-0.0695,2.0806,6.043,-29.3875,37.87,29.66,51.039833,13.792746,113.6,4.72,3.09,3.56,3.93,3,7,5,43.58
260314,123830300,1395837510061.054,0.1667,-1.1669,-9.2471,-0.4173,-3.1304,0.3478,2.1737,5.9365,-28.3347,37.87,29.66,51.039833,13.792746,113.6,4.72,3.09,3.56,3.93,3,7,5,43.58
260314,123830300,1395837510073.165,0.3628,-2.5397,-7.58,-2.9217,-4.5217,-0.1391,4.8799,4.8796,-28.1554,37.87,29.66,51.039833,13.792746,113.6,4.72,3.09,3.56,3.93,3,7,5,43.58
260314,123830300,1395837510090.589,1.7847,-1.6768,-8.2665,-7.8608,-2.2956,-0.8347,7.4508,6.0245,-28.478,37.87,29.66,51.039833,13.792746,113.6,4.72,3.09,3.56,3.93,3,7,5,43.58
260314,123830300,1395837510116.994,2.6476,0.0,-11.9143,-8.4173,-0.6956,-1.3217,5.8665,7.2042,-29.7879,37.87,29.66,51.03984,13.792753,113.6,4.71,3.09,3.56,3.91,3,7,5,43.58
260314,123830300,1395837510140.09,0.9315,0.6962,-8.5018,-7.8608,8.3478,-2.226,5.2335,7.2116,-29.9838,37.95,29.55,51.03984,13.792753,113.77,4.71,3.09,3.56,3.91,3,7,5,43.58
260314,123830400,1395837510161.109,4.4029,0.8531,-8.7077,-4.8695,2.3652,-1.5304,4.9062,7.2458,-30.0592,37.95,29.55,51.03984,13.792753,113.77,4.71,3.09,3.56,3.91,3,7,5,43.58
260314,123830400,1395837510178.693,-1.2257,0.8433,-10.7572,-0.4173,-5.6347,-0.4173,4.5827,7.154,-30.1202,37.95,29.55,51.03984,13.792753,113.77,4.71,3.09,3.56,3.91,3,7,5,43.58
260314,123830400,1395837510190.5278,-0.7746,-1.2551,-10.1688,-0.0695,-3.2695,-0.2782,4.6761,6.6706,-30.3751,37.95,29.55,51.03984,13.792753,113.77,4.71,3.09,3.56,3.91,3,7,5,43.58
260314,123830400,1395837510211.875,3.0496,-0.6373,-11.3946,-0.4869,-1.113,0.0695,4.2713,9.3227,-31.2214,37.95,29.55,51.039848,13.792761,113.77,4.71,3.09,3.56,3.9,3,7,5,43.58
260314,123830400,1395837510230.639,-0.1765,-0.2549,-11.2769,0.4173,-8.0695,0.9043,2.2496,8.9181,-31.9171,38.01,29.5,51.039848,13.792761,113.9,4.71,3.09,3.56,3.9,3,7,5,43.58
260314,123830500,1395837510250.941,-0.0392,-0.2647,-11.3357,0.8347,-10.2956,1.1826,1.2268,7.3374,-31.7999,38.01,29.5,51.039848,13.792761,113.9,4.71,3.09,3.56,3.9,3,7,5,43.58
260314,123830500,1395837510270.435,0.4118,-0.6373,-9.9629,0.2086,-6.2608,1.3217,1.3194,6.9462,-31.6405,38.01,29.5,51.039848,13.792761,113.9,4.71,3.09,3.56,3.9,3,7,5,43.58
260314,123830500,1395837510290.298,1.1963,-1.4905,-9.0019,-1.8782,-5.7739,0.7652,1.6274,6.8844,-31.5045,38.01,29.5,51.039848,13.792761,113.9,4.71,3.09,3.56,3.9,3,7,5,43.58
260314,123830500,1395837510317.002,2.2848,-2.1965,-9.2471,-3.6173,-8.0695,-0.0695,4.1441,8.239,-30.846,38.01,29.5,51.039855,13.792768,113.9,4.71,3.09,3.56,3.88,3,7,5,43.58
260314,123830500,1395837510340.1091,-0.9904,0.2745,-11.6593,-3.8956,-12.5217,-0.8347,4.3535,7.5798,-30.9251,38.04,29.14,51.039855,13.792768,114.01,4.71,3.09,3.56,3.88,3,7,5,43.58
260314,123830600,1395837510361.0798,1.5983,-0.5981,-8.2272,-3.4782,-5.0782,-1.3217,4.207,5.5057,-30.7636,38.04,29.14,51.039855,13.792768,114.01,4.71,3.09,3.56,3.88,3,7,5,43.58
260314,123830600,1395837510372.914,2.4711,1.3042,-8.7666,-3.5478,-4.8,-1.4608,4.0851,5.2501,-30.7375,38.04,29.14,51.039855,13.792768,114.01,4.71,3.09,3.56,3.88,3,7,5,43.58
260314,123830600,1395837510390.5662,-1.6866,0.2255,-10.0904,-0.0695,5.9826,-1.3217,3.938,4.943,-30.7388,38.04,29.14,51.039855,13.792768,114.01,4.71,3.09,3.56,3.88,3,7,5,43.58
260314,123830600,1395837510417.0562,1.3826,-1.8925,-10.4728,-1.3217,-9.0434,0.2782,3.9559,5.0697,-30.6865,38.04,29.14,51.039863,13.792775,114.01,4.72,3.09,3.56,3.87,3,7,5,43.58
260314,123830600,1395837510440.144,0.4706,-1.4611,-9.5903,-1.7391,4.9391,0.1391,4.6239,3.0483,-30.2059,38.53,29.36,51.039863,13.792775,114.09,4.72,3.09,3.56,3.87,3,7,5,43.58
260314,123830700,1395837510461.0789,1.3238,0.1176,-7.1289,-0.1391,2.4347,0.3478,3.097,3.0695,-29.6079,38.53,29.36,51.039863,13.792775,114.09,4.72,3.09,3.56,3.87,3,7,5,43.58
260314,123830700,1395837510472.909,2.6868,-0.3334,-9.0411,-1.6,-7.9304,0.2782,2.9442,3.833,-28.9922,38.53,29.36,51.039863,13.792775,114.09,4.72,3.09,3.56,3.87,3,7,5,43.58
260314,123830700,1395837510490.957,1.6278,-1.0002,-9.4628,-1.4608,0.3478,0.3478,3.967,2.839,-28.2987,38.53,29.36,51.039863,13.792775,114.09,4.72,3.09,3.56,3.87,3,7,5,43.58
260314,123830700,1395837510517.02,0.7256,-0.8237,-9.5608,-0.9739,-0.3478,0.626,3.58,3.4814,-28.0984,38.53,29.36,51.039871,13.792783,114.09,4.71,3.09,3.56,3.86,3,7,5,43.57
260314,123830700,1395837510540.108,1.4905,0.0098,-9.9335,-1.6695,0.1391,-0.2086,2.5371,5.1446,-27.9852,38.62,29.41,51.039871,13.792783,114.13,4.71,3.09,3.56,3.86,3,7,5,43.57
260314,123830800,1395837510554.718,-0.657,-0.6177,-9.7668,-0.8347,-1.1826,0.0,1.5019,4.5077,-28.0632,38.62,29.41,51.039871,13.792783,114.13,4.71,3.09,3.56,3.86,3,7,5,43.57
260314,123830800,1395837510570.597,-0.6471,-0.4412,-10.7964,-0.9043,-10.0173,0.3478,2.0459,5.1601,-28.1071,38.62,29.41,51.039871,13.792783,114.13,4.71,3.09,3.56,3.86,3,7,5,43.57
260314,123830800,1395837510590.3298,0.8727,-0.1078,-10.9141,-1.0434,-4.5217,-0.4173,1.987,5.1677,-28.2318,38.62,29.41,51.039871,13.792783,114.13,4.71,3.09,3.56,3.86,3,7,5,43.57
260314,123830800,1395837510617.1082,2.7358,-0.0392,-8.7077,-0.4869,0.6956,-0.4173,2.3124,4.8393,-28.2011,38.62,29.41,51.03988,13.79279,114.13,4.72,3.09,3.56,3.85,3,7,5,43.57
260314,123830800,1395837510632.177,1.5493,-0.3432,-10.061,-1.0434,-5.426,-0.626,2.4654,4.8478,-28.2156,38.94,29.33,51.03988,13.79279,114.15,4.72,3.09,3.56,3.85,3,7,5,43.57
260314,123830900,1395837510651.0798,1.4512,-0.9904,-10.7376,-1.3913,0.626,0.0,3.0243,4.9042,-28.1886,38.94,29.33,51.03988,13.79279,114.15,4.72,3.09,3.56,3.85,3,7,5,43.57
260314,123830900,1395837510670.591,0.1568,-1.2257,-9.9237,-1.8086,-1.3913,-0.4869,3.727,4.3615,-28.3497,38.94,29.33,51.03988,13.79279,114.15,4.72,3.09,3.56,3.85,3,7,5,43.57
260314,123830900,1395837510690.645,-1.3238,-0.8139,-10.8062,-2.5739,-5.1478,0.1391,3.6525,4.9478,-28.591,38.94,29.33,51.03988,13.79279,114.15,4.72,3.09,3.56,3.85,3,7,5,43.57
260314,123830900,1395837510717.0579,-1.7356,-0.755,-10.6297,-2.9217,-6.6086,0.2086,3.3917,5.0855,-28.9346,38.94,29.33,51.039888,13.792797,114.15,4.72,3.09,3.56,3.84,3,7,5,43.57
260314,123830900,1395837510739.4968,0.0294,-0.147,-10.0315,-2.8521,-8.626,0.5565,2.9643,5.1517,-29.144,38.93,29.16,51.039888,13.792797,114.18,4.72,3.09,3.56,3.84,3,7,5,43.57
260314,123831000,1395837510751.087,1.3924,-0.2059,-10.0904,-2.6434,-8.3478,0.0,2.9407,5.5441,-28.9187,38.93,29.16,51.039888,13.792797,114.18,4.72,3.09,3.56,3.84,3,7,5,43.57
260314,123831000,1395837510770.479,3.1771,-0.0392,-8.5214,-2.3652,-1.8782,-0.8347,3.4913,5.5736,-28.6335,38.93,29.16,51.039888,13.792797,114.18,4.72,3.09,3.56,3.84,3,7,5,43.57
260314,123831000,1395837510790.375,2.5201,-0.0784,-8.237,-2.5043,-0.2782,-0.4869,3.3735,4.912,-28.3899,38.93,29.16,51.039888,13.792797,114.18,4.72,3.09,3.56,3.84,3,7,5,43.57
260314,123831000,1395837510812.592,1.0492,-0.9904,-10.463,-2.4347,-0.0695,-0.4869,3.581,4.5443,-28.0812,38.93,29.16,51.039896,13.792804,114.18,4.71,3.09,3.56,3.83,3,7,5,43.57
260314,123831000,1395837510839.503,-0.7256,-1.2061,-8.9921,-3.0608,1.6,-0.1391,3.6472,3.9173,-27.9611,38.9799,29.06,51.039896,13.792804,114.2,4.71,3.09,3.56,3.83,3,7,5,43.57
260314,123831100,1395837510860.886,-1.667,-0.9217,-10.3159,-3.0608,-3.8956,0.4173,3.1815,4.3994,-27.9249,38.9799,29.06,51.039896,13.792804,114.2,4.71,3.09,3.56,3.83,3,7,5,43.57
260314,123831100,1395837510873.009,-0.8433,-0.7452,-10.3257,-1.9478,0.0695,0.5565,2.7048,4.2361,-27.8245,38.9799,29.06,51.039896,13.792804,114.2,4.71,3.09,3.56,3.83,3,7,5,43.57
260314,123831100,1395837510890.6501,-1.4022,-0.7158,-9.3059,-2.8521,-3.4086,0.4173,2.4841,4.6262,-27.5434,38.9799,29.06,51.039896,13.792804,114.2,4.71,3.09,3.56,3.83,3,7,5,43.57
260314,123831100,1395837510912.574,1.0982,0.0882,-9.198,-2.713,-2.9217,0.1391,2.277,5.29,-27.4308,38.9799,29.06,51.039905,13.792812,114.2,4.71,3.09,3.55,3.83,3,7,5,43.57
260314,123831100,1395837510940.898,2.422,0.7648,-9.6981,-1.9478,-3.2,-0.2782,1.4086,6.0717,-27.3073,39.07,28.78,51.039905,13.792812,114.22,4.71,3.09,3.55,3.83,3,7,5,43.57
260314,123831200,1395837510959.954,1.0688,-0.1568,-10.2571,-0.9739,-0.4869,-0.5565,1.1565,5.7694,-26.9618,39.07,28.78,51.039905,13.792812,114.22,4.71,3.09,3.55,3.83,3,7,5,43.57
260314,123831200,1395837510980.179,3.4223,-1.1963,-6.1189,-1.3217,7.6521,-0.7652,2.6732,6.1897,-26.4714,39.07,28.78,51.039905,13.792812,114.22,4.71,3.09,3.55,3.83,3,7,5,43.57
260314,123831200,1395837511000.114,2.3338,-1.1375,-9.0509,-2.1565,1.5304,-0.1391,3.6482,6.1139,-25.9769,39.07,28.78,51.039905,13.792812,114.22,4.71,3.09,3.55,3.83,3,7,5,43.57
260314,123831200,1395837511019.403,0.3432,-1.108,-11.3554,-2.5043,-1.5304,0.6956,3.9248,5.9597,-25.7587,39.07,28.78,51.039914,13.792819,114.22,2.54,2.35,0.96,3.81,3,7,5,43.57
260314,123831200,1395837511039.439,-0.0588,-2.1279,-11.5417,-3.3391,0.7652,0.1391,3.9719,5.6096,-25.8034,39.19,28.44,51.039914,13.792819,114.24,2.54,2.35,0.96,3.81,3,7,5,43.57
260314,123831300,1395837511060.873,-1.1276,-0.8531,-9.7766,-4.0347,-3.6173,0.1391,3.3103,6.2915,-26.193,39.19,28.44,51.039914,13.792819,114.24,2.54,2.35,0.96,3.81,3,7,5,43.57
260314,123831300,1395837511073.106,-1.6474,-0.0196,-11.3455,-4.1043,-8.1391,-0.2782,2.6059,5.4055,-26.2885,39.19,28.44,51.039914,13.792819,114.24,2.54,2.35,0.96,3.81,3,7,5,43.57
260314,123831300,1395837511090.615,-1.059,-0.2353,-10.2767,-3.2695,-5.2173,-0.1391,2.6992,6.1235,-26.2378,39.19,28.44,51.039914,13.792819,114.24,2.54,2.35,0.96,3.81,3,7,5,43.57
260314,123831300,1395837511112.764,2.8927,1.0296,-10.2473,-2.1565,-7.513,-0.6956,1.7324,5.7931,-26.633,39.19,28.44,51.039922,13.792826,114.24,2.54,2.35,0.96,3.8,3,7,5,43.57
260314,123831300,1395837511136.61,1.0688,0.9413,-10.3846,-2.6434,-6.1217,-0.9739,1.7828,5.3455,-26.7457,39.1599,28.53,51.039922,13.792826,114.26,2.54,2.35,0.96,3.8,3,7,5,43.57
260314,123831400,1395837511152.154,4.0106,0.0294,-9.1098,-1.4608,3.1304,-0.5565,1.7934,4.9288,-26.6923,39.1599,28.53,51.039922,13.792826,114.26,2.54,2.35,0.96,3.8,3,7,5,43.57
260314,123831400,1395837511170.723,1.5983,0.0784,-8.9823,-1.8782,-8.6956,-0.5565,1.8632,4.3858,-26.8286,39.1599,28.53,51.039922,13.792826,114.26,2.54,2.35,0.96,3.8,3,7,5,43.57
260314,123831400,1395837511190.388,0.6471,0.0686,-11.3455,-1.8086,-5.913,-0.2782,1.6151,2.9636,-26.942,39.1599,28.53,51.039922,13.792826,114.26,2.54,2.35,0.96,3.8,3,7,5,43.57
260314,123831400,1395837511217.5342,0.8139,-0.5883,-11.3357,-1.5304,5.9826,-0.6956,2.0507,3.318,-26.9615,39.1599,28.53,51.03993,13.792833,114.26,2.54,2.35,0.96,3.8,3,7,5,43.57
260314,123831400,1395837511233.0972,0.7942,-0.7158,-7.6389,-2.0869,2.7826,0.0,2.2364,3.663,-27.0976,39.22,28.4,51.03993,13.792833,114.28,2.54,2.35,0.96,3.8,3,7,5,43.57
260314,123831500,1395837511251.096,0.3235,0.1176,-12.1496,-1.7391,-11.0608,0.8347,0.8173,3.1438,-28.0266,39.22,28.4,51.03993,13.792833,114.28,2.54,2.35,0.96,3.8,3,7,5,43.57
260314,123831500,1395837511270.529,-0.3628,-1.1375,-11.5221,-1.6695,-1.2521,-0.2086,1.3918,1.9275,-28.3559,39.22,28.4,51.03993,13.792833,114.28,2.54,2.35,0.96,3.8,3,7,5,43.57
260314,123831500,1395837511290.649,-0.8727,0.3726,-9.6981,-1.8782,-3.0608,0.4869,1.5742,2.865,-28.8003,39.22,28.4,51.03993,13.792833,114.28,2.54,2.35,0.96,3.8,3,7,5,43.57
260314,123831500,1395837511312.781,0.1372,0.4706,-10.1492,-1.8086,-2.2956,-0.5565,0.9946,1.636,-29.4426,39.22,28.4,51.039939,13.79284,114.28,2.54,2.35,0.96,3.79,3,7,5,43.57
260314,123831500,1395837511353.382,-2.5789,-0.2059,-10.4728,-2.7826,-3.6173,-0.626,1.6075,1.5221,-29.8201,39.24,28.16,51.039939,13.79284,114.31,2.54,2.35,0.96,3.79,3,7,5,43.57
260314,123831600,1395837511379.6238,0.353,0.5197,-9.757,-2.1565,-2.0173,-0.4173,2.1147,2.9331,-30.4025,39.24,28.16,51.039939,13.79284,114.31,2.54,2.35,0.96,3.79,3,7,5,43.57
260314,123831600,1395837511407.296,0.9315,0.657,-10.061,-2.226,-6.9565,-0.8347,1.6812,1.3786,-30.7041,39.24,28.16,51.039939,13.79284,114.31,2.54,2.35,0.96,3.79,3,7,5,43.57
260314,123831600,1395837511426.747,0.451,-0.2843,-10.767,-1.8086,-7.3739,-0.3478,1.4862,1.7288,-31.1111,39.24,28.16,51.039939,13.79284,114.31,2.54,2.35,0.96,3.79,3,7,5,43.57
260314,123831600,1395837511443.185,1.6964,0.5981,-8.9431,-2.0869,4.0347,-0.4173,1.9338,0.8752,-31.2414,39.24,28.16,51.039947,13.792847,114.31,2.54,2.35,0.96,3.79,3,7,5,43.57
260314,123831600,1395837511466.802,2.3828,0.5589,-8.0213,-1.3913,-0.7652,-0.7652,1.8014,1.1451,-31.4812,39.26,27.97,51.039947,13.792847,114.34,2.54,2.35,0.96,3.79,3,7,5,43.57
260314,123831700,1395837511483.308,1.3042,-1.3336,-9.3451,-0.8347,-2.3652,-0.3478,2.0883,1.9141,-31.1066,39.26,27.97,51.039947,13.792847,114.34,2.54,2.35,0.96,3.79,3,7,5,43.57
260314,123831700,1395837511499.512,0.2255,-0.1078,-9.3647,-1.4608,-0.2782,-0.3478,2.496,1.698,-30.6151,39.26,27.97,51.039947,13.792847,114.34,2.54,2.35,0.96,3.79,3,7,5,43.57
260314,123831700,1395837511512.384,0.9217,-0.4706,-9.4922,-1.3913,2.8521,-0.4173,3.2512,1.9749,-30.2245,39.26,27.97,51.039947,13.792847,114.34,2.54,2.35,0.96,3.79,3,7,5,43.57
260314,123831700,1395837511531.3079,1.1178,-1.8925,-9.7864,-1.6695,-0.0695,-0.0695,3.4334,2.0089,-30.1047,39.26,27.97,51.039956,13.792854,114.34,2.54,2.35,0.96,3.79,3,7,5,43.57
260314,123831700,1395837511546.9192,-0.2157,-0.5785,-10.2277,-2.3652,-2.4347,0.2782,3.3901,2.3335,-29.9093,39.27,27.86,51.039956,13.792854,114.36,2.54,2.35,0.96,3.79,3,7,5,43.57
260314,123831800,1395837511567.314,-0.4903,-0.1372,-11.2965,-1.8782,-2.5739,0.2782,3.2746,2.7173,-29.7253,39.27,27.86,51.039956,13.792854,114.36,2.54,2.35,0.96,3.79,3,7,5,43.57
260314,123831800,1395837511582.9402,-0.5099,-1.0198,-10.2571,-0.626,-1.3217,0.2782,2.9273,2.3847,-29.6963,39.27,27.86,51.039956,13.792854,114.36,2.54,2.35,0.96,3.79,3,7,5,43.57
260314,123831800,1395837511599.437,-0.5393,-1.0688,-11.3848,-1.4608,-8.2086,0.3478,2.5808,2.8527,-29.3275,39.27,27.86,51.039956,13.792854,114.36,2.54,2.35,0.96,3.79,3,7,5,43.57
260314,123831800,1395837511619.635,-2.5005,-1.4022,-11.6103,-1.9478,-7.026,0.3478,3.2773,2.63,-28.8915,39.27,27.86,51.039964,13.792861,114.36,2.54,2.35,0.96,3.8,3,7,5,43.57
260314,123831800,1395837511641.635,-1.2943,0.0294,-10.0413,-1.113,-5.8434,0.9043,2.4556,2.3833,-28.6326,39.29,27.79,51.039964,13.792861,114.39,2.54,2.35,0.96,3.8,3,7,5,43.57
260314,123831900,1395837511662.034,-2.7947,-0.0294,-11.2279,-1.3913,-10.6434,0.0695,2.5522,2.0085,-28.3637,39.29,27.79,51.039964,13.792861,114.39,2.54,2.35,0.96,3.8,3,7,5,43.57
260314,123831900,1395837511682.7532,-0.4804,-0.5197,-11.6495,-2.0173,-6.6782,0.1391,3.0386,0.9748,-28.1731,39.29,27.79,51.039964,13.792861,114.39,2.54,2.35,0.96,3.8,3,7,5,43.57
260314,123831900,1395837511699.432,-0.0686,0.0294,-10.0413,-2.7826,-5.3565,-0.1391,2.6875,1.8537,-28.1538,39.29,27.79,51.039964,13.792861,114.39,2.54,2.35,0.96,3.8,3,7,5,43.57
260314,123831900,1395837511719.029,-0.4118,-0.3137,-9.4726,-2.6434,-7.3043,-0.2086,2.8961,0.6126,-27.9699,39.29,27.79,51.039973,13.792868,114.39,2.54,2.35,0.96,3.8,3,7,5,43.57
260314,123831900,1395837511739.5078,-1.3042,0.7746,-9.9335,-2.5739,-6.8173,-0.4869,2.8485,0.6737,-27.2252,39.3,27.77,51.039973,13.792868,114.41,2.54,2.35,0.96,3.8,3,7,5,43.57
260314,123832000,1395837511760.966,-0.1274,0.451,-9.7668,-1.8782,-5.0782,-0.626,2.7554,0.5719,-26.5777,39.3,27.77,51.039973,13.792868,114.41,2.54,2.35,0.96,3.8,3,7,5,43.57
260314,123832000,1395837511772.808,1.6768,0.2549,-9.3157,-1.2521,-5.3565,-0.626,2.8661,0.6509,-26.1342,39.3,27.77,51.039973,13.792868,114.41,2.54,2.35,0.96,3.8,3,7,5,43.57
260314,123832000,1395837511790.739,0.8629,-0.2549,-10.1688,-1.113,-6.1913,-0.4869,2.8125,0.7723,-25.7146,39.3,27.77,51.039973,13.792868,114.41,2.54,2.35,0.96,3.8,3,7,5,43.57
260314,123832000,1395837511817.768,2.1867,0.3628,-8.6783,-1.1826,-2.1565,-0.7652,2.4135,1.2276,-25.4094,39.3,27.77,51.039981,13.792875,114.41,2.54,2.35,0.96,3.81,3,7,5,43.57
260314,123832000,1395837511833.097,1.7062,-0.3137,-8.9038,-1.5304,-0.8347,-1.0434,2.8731,0.6984,-25.1706,39.3,27.8,51.039981,13.792875,114.44,2.54,2.35,0.96,3.81,3,7,5,43.57
260314,123832100,1395837511851.164,0.6864,-0.0588,-8.5606,-1.3913,-2.2956,-0.626,2.7008,0.4914,-25.0692,39.3,27.8,51.039981,13.792875,114.44,2.54,2.35,0.96,3.81,3,7,5,43.57
260314,123832100,1395837511870.767,1.1963,0.1863,-9.0411,-1.3217,-3.3391,-0.7652,2.5297,0.8039,-25.3088,39.3,27.8,51.039981,13.792875,114.44,2.54,2.35,0.96,3.81,3,7,5,43.57
260314,123832100,1395837511890.785,0.6079,0.0784,-9.198,-2.2956,0.0,-0.8347,2.9273,0.9281,-25.6452,39.3,27.8,51.039981,13.792875,114.44,2.54,2.35,0.96,3.81,3,7,5,43.57
260314,123832100,1395837511917.733,1.5003,-0.0882,-8.6293,-1.0434,-4.2434,-0.2782,2.6328,1.7354,-25.7271,39.3,27.8,51.039989,13.792882,114.44,2.54,2.35,0.96,3.81,3,7,5,43.57
260314,123832100,1395837511933.2732,0.9413,0.3039,-9.6687,-0.8347,-7.026,-0.2782,2.3247,1.5656,-25.8619,39.31,27.96,51.039989,13.792882,114.47,2.54,2.35,0.96,3.81,3,7,5,43.57
260314,123832200,1395837511951.163,0.6962,0.3235,-9.3451,-2.0869,0.3478,-0.8347,3.0131,0.974,-26.0238,39.31,27.96,51.039989,13.792882,114.47,2.54,2.35,0.96,3.81,3,7,5,43.57
260314,123832200,1395837511970.5962,2.0004,-0.0196,-8.1292,-1.9478,-2.8521,-0.4869,3.1275,1.2457,-26.049,39.31,27.96,51.039989,13.792882,114.47,2.54,2.35,0.96,3.81,3,7,5,43.57
260314,123832200,1395837511990.746,-0.706,-0.1568,-10.0021,-2.3652,-7.513,-0.4173,3.2347,0.0,-26.2425,39.31,27.96,51.039989,13.792882,114.47,2.54,2.35,0.96,3.81,3,7,5,43.57
260314,123832200,1395837512017.873,0.3432,-0.0686,-9.5216,-2.713,-2.226,-0.4173,3.3162,1.5178,-26.8047,39.31,27.96,51.039998,13.792889,114.47,2.54,2.35,0.96,3.82,3,7,5,43.57
260314,123832200,1395837512033.189,0.8237,0.2549,-8.188,-2.226,-4.2434,-0.0695,2.7593,1.6722,-27.1889,39.33,28.1,51.039998,13.792889,114.5,2.54,2.35,0.96,3.82,3,7,5,43.57
260314,123832300,1395837512051.545,1.3924,-0.3922,-8.2665,-0.9043,-6.8173,-0.0695,2.6303,1.5742,-27.2546,39.33,28.1,51.039998,13.792889,114.5,2.54,2.35,0.96,3.82,3,7,5,43.57
260314,123832300,1395837512070.618,1.0296,-0.353,-9.6687,-1.8086,-5.9826,-0.1391,3.198,2.1342,-27.5979,39.33,28.1,51.039998,13.792889,114.5,2.54,2.35,0.96,3.82,3,7,5,43.57
260314,123832300,1395837512090.487,0.5883,-0.2353,-8.0605,-1.6,-3.2695,-0.6956,2.7654,1.1111,-27.7099,39.33,28.1,51.039998,13.792889,114.5,2.54,2.35,0.96,3.82,3,7,5,43.57
260314,123832300,1395837512119.018,1.2747,-0.2157,-8.443,-1.5304,-3.9652,-0.5565,2.9588,0.1161,-27.6864,39.33,28.1,51.040006,13.792897,114.5,2.54,2.35,0.96,3.81,3,7,5,43.57
260314,123832300,1395837512133.2559,1.0198,-0.5981,-8.3841,-1.9478,-6.1913,-0.5565,3.2438,-0.6276,-27.755,39.38,28.46,51.040006,13.792897,114.53,2.54,2.35,0.96,3.81,3,7,5,43.57
260314,123832400,1395837512151.375,0.1667,-1.108,-10.5513,-1.8782,-8.3478,-0.1391,3.1806,-0.1746,-28.1827,39.38,28.46,51.040006,13.792897,114.53,2.54,2.35,0.96,3.81,3,7,5,43.57
260314,123832400,1395837512170.763,-0.5295,0.147,-10.3944,-2.2956,-6.2608,-0.3478,3.1036,0.2689,-28.6094,39.38,28.46,51.040006,13.792897,114.53,2.54,2.35,0.96,3.81,3,7,5,43.57
260314,123832400,1395837512190.5142,0.4608,0.5393,-9.2667,-2.2956,-8.6956,-0.4869,2.6724,-0.0506,-28.745,39.38,28.46,51.040006,13.792897,114.53,2.54,2.35,0.96,3.81,3,7,5,43.57
260314,123832400,1395837512219.074,0.8629,0.5589,-10.9043,-2.0869,-3.4782,-0.6956,2.9326,-0.5349,-28.4678,39.38,28.46,51.040014,13.792904,114.53,2.54,2.35,0.96,3.82,3,7,5,43.57
260314,123832400,1395837512239.489,-0.0784,0.2451,-8.796,-1.8782,-5.7043,-0.1391,2.311,-0.7114,-27.9771,39.44,28.49,51.040014,13.792904,114.56,2.54,2.35,0.96,3.82,3,7,5,43.57
260314,123832500,1395837512251.525,-0.3432,-0.0392,-10.2865,-2.226,-8.2782,-0.626,2.9677,-1.4319,-27.6785,39.44,28.49,51.040014,13.792904,114.56,2.54,2.35,0.96,3.82,3,7,5,43.57
260314,123832500,1395837512270.046,-3.0104,0.2941,-10.3257,-2.2956,-6.4695,-0.0695,2.8517,-2.8184,-27.3791,39.44,28.49,51.040014,13.792904,114.56,2.54,2.35,0.96,3.82,3,7,5,43.57
260314,123832500,1395837512290.53,-1.0982,0.0294,-10.6003,-2.226,-4.9391,-0.1391,2.7283,-1.6009,-27.4457,39.44,28.49,51.040014,13.792904,114.56,2.54,2.35,0.96,3.82,3,7,5,43.57
260314,123832500,1395837512319.0251,-1.5493,0.2745,-9.9629,-2.1565,-3.4782,-0.4173,2.8104,-2.4092,-27.5843,39.44,28.49,51.040023,13.792912,114.56,2.54,2.35,0.96,3.83,3,7,5,43.57
260314,123832500,1395837512339.484,-1.0786,0.147,-10.463,-1.0434,-5.3565,0.6956,2.4138,-1.8802,-27.5434,39.53,28.61,51.040023,13.792912,114.58,2.54,2.35,0.96,3.83,3,7,5,43.57
260314,123832600,1395837512359.533,-1.3434,-0.9217,-11.0318,-0.9739,-6.3304,0.5565,3.0276,-2.3018,-27.0305,39.53,28.61,51.040023,13.792912,114.58,2.54,2.35,0.96,3.83,3,7,5,43.57
260314,123832600,1395837512380.1128,-1.1669,0.147,-11.1396,-1.2521,-2.0869,0.4869,3.408,-2.1816,-26.7849,39.53,28.61,51.040023,13.792912,114.58,2.54,2.35,0.96,3.83,3,7,5,43.57
260314,123832600,1395837512391.006,-0.9119,-0.8237,-10.718,-1.7391,-0.3478,1.0434,3.8131,-1.7403,-26.7169,39.53,28.61,51.040023,13.792912,114.58,2.54,2.35,0.96,3.83,3,7,5,43.57
260314,123832600,1395837512412.908,-0.5589,-1.1473,-9.5903,-1.5304,1.7391,0.6956,3.8342,-1.3625,-26.718,39.53,28.61,51.040032,13.79292,114.58,2.54,2.35,0.96,3.84,3,7,5,43.57
260314,123832600,1395837512440.5269,0.3824,-1.4611,-9.502,-0.8347,1.3913,0.8347,3.0621,-1.0653,-26.88,39.95,28.78,51.040032,13.79292,114.62,2.54,2.35,0.96,3.84,3,7,5,43.57
260314,123832700,1395837512453.666,0.6864,-0.1667,-8.7862,-0.9043,2.0869,0.2086,3.1889,-0.9596,-26.94,39.95,28.78,51.040032,13.79292,114.62,2.54,2.35,0.96,3.84,3,7,5,43.57
260314,123832700,1395837512470.662,1.059,-1.0296,-9.2961,-0.8347,5.426,0.626,3.348,-1.0745,-26.9626,39.95,28.78,51.040032,13.79292,114.62,2.54,2.35,0.96,3.84,3,7,5,43.57
260314,123832700,1395837512490.555,1.4709,-1.0688,-9.1,-1.5304,1.7391,0.626,3.1399,0.2958,-26.6382,39.95,28.78,51.040032,13.79292,114.62,2.54,2.35,0.96,3.84,3,7,5,43.57
260314,123832700,1395837512512.9832,0.2549,-0.7844,-8.6195,-0.9739,4.5217,0.0,3.2804,-0.2093,-26.2849,39.95,28.78,51.040041,13.792928,114.62,2.54,2.35,0.96,3.85,3,7,5,43.56
260314,123832700,1395837512539.4622,2.7653,-0.402,-8.4037,-0.9043,4.313,-0.1391,3.3298,0.5082,-26.1718,40.34,28.96,51.040041,13.792928,114.65,2.54,2.35,0.96,3.85,3,7,5,43.56
260314,123832800,1395837512551.3389,0.4216,-0.5393,-9.2765,-1.4608,-2.7826,-0.4173,3.3598,1.4465,-26.4592,40.34,28.96,51.040041,13.792928,114.65,2.54,2.35,0.96,3.85,3,7,5,43.56
260314,123832800,1395837512570.104,0.2255,-0.5197,-10.4336,-1.8086,-4.8695,-0.4173,3.0,1.4376,-26.9971,40.34,28.96,51.040041,13.792928,114.65,2.54,2.35,0.96,3.85,3,7,5,43.56
260314,123832800,1395837512590.289,0.7844,-0.1667,-9.1294,-1.3913,-1.7391,-0.626,2.0507,1.0844,-27.11,40.34,28.96,51.040041,13.792928,114.65,2.54,2.35,0.96,3.85,3,7,5,43.56
260314,123832800,1395837512619.088,-0.8727,0.3824,-10.5316,-3.3391,-8.4173,-0.6956,2.602,1.6439,-27.0047,40.34,28.96,51.040051,13.792937,114.65,2.54,2.35,0.96,3.85,3,7,5,43.56
260314,123832800,1395837512639.502,-0.3039,0.5687,-11.7868,-3.1304,-5.7043,-0.4173,2.7161,1.7638,-26.7526,40.95,29.19,51.040051,13.792937,114.67,2.54,2.35,0.96,3.85,3,7,5,43.56
260314,123832900,1395837512655.644,-0.9904,-0.5197,-10.9827,-1.7391,-2.5043,-0.2782,2.3696,2.3337,-26.727,40.95,29.19,51.040051,13.792937,114.67,2.54,2.35,0.96,3.85,3,7,5,43.56
260314,123832900,1395837512670.435,0.6668,-0.2549,-9.1784,-2.4347,0.4173,0.0,2.517,3.7631,-26.6952,40.95,29.19,51.040051,13.792937,114.67,2.54,2.35,0.96,3.85,3,7,5,43.56
260314,123832900,1395837512690.4321,0.3235,-0.5197,-11.4436,-1.8782,-4.8,0.3478,2.1939,4.7004,-27.0575,40.95,29.19,51.040051,13.792937,114.67,2.54,2.35,0.96,3.85,3,7,5,43.56
260314,123832900,1395837512713.433,0.8139,-0.5393,-11.1788,-1.3913,0.7652,0.5565,2.304,5.7381,-27.3131,40.95,29.19,51.040061,13.792946,114.67,4.72,3.09,3.56,3.85,3,7,5,43.56
260314,123832900,1395837512739.52,2.981,-0.8531,-9.0705,-1.8782,0.7652,0.2782,2.6367,7.8645,-27.7361,41.95,29.57,51.040061,13.792946,114.7,4.72,3.09,3.56,3.85,3,7,5,43.56
260314,123833000,1395837512756.552,2.0788,-1.059,-9.9531,-1.7391,-1.7391,0.3478,2.4227,9.6142,-28.5875,41.95,29.57,51.040061,13.792946,114.7,4.72,3.09,3.56,3.85,3,7,5,43.56
260314,123833000,1395837512770.162,1.6179,-0.4804,-8.9823,-1.7391,-1.3913,0.3478,2.02,10.2147,-29.7047,41.95,29.57,51.040061,13.792946,114.7,4.72,3.09,3.56,3.85,3,7,5,43.56
260314,123833000,1395837512790.561,2.2946,-0.4118,-9.198,-1.6,-0.0695,0.4869,2.2444,9.9467,-30.0526,41.95,29.57,51.040061,13.792946,114.7,4.72,3.09,3.56,3.85,3,7,5,43.56
260314,123833000,1395837512825.956,1.5787,-0.4118,-10.0806,-1.8782,-0.4173,0.1391,1.8589,10.2856,-30.641,41.95,29.57,51.040073,13.792956,114.7,4.71,3.09,3.55,3.83,3,7,5,43.56
260314,123833000,1395837512842.935,2.422,-0.2059,-9.4726,-1.2521,-1.7391,-0.2782,1.6185,10.4707,-30.9076,43.22,29.18,51.040073,13.792956,114.73,4.71,3.09,3.55,3.83,3,7,5,43.56
260314,123833100,1395837512859.925,1.8435,-0.4216,-9.1196,-1.3217,-1.1826,0.2086,2.4831,10.5917,-31.2102,43.22,29.18,51.040073,13.792956,114.73,4.71,3.09,3.55,3.83,3,7,5,43.56
260314,123833100,1395837512879.504,1.9415,-0.3137,-9.6589,-1.7391,-2.1565,-0.1391,2.272,11.321,-31.8997,43.22,29.18,51.040073,13.792956,114.73,4.71,3.09,3.55,3.83,3,7,5,43.56
260314,123833100,1395837512899.121,1.4709,-0.7746,-9.9629,-1.6695,-3.1304,-0.1391,1.7691,11.861,-32.1301,43.22,29.18,51.040073,13.792956,114.73,4.71,3.09,3.55,3.83,3,7,5,43.56
260314,123833100,1395837512918.4648,1.2257,-0.4216,-9.5903,-2.0869,-1.1826,-0.2782,2.3478,10.9474,-32.193,43.22,29.18,51.040084,13.792965,114.73,4.72,3.09,3.56,3.83,3,7,5,43.56
260314,123833100,1395837512939.484,1.2943,-0.0882,-10.2179,-2.1565,-2.9217,-0.4869,2.3679,11.5026,-32.5827,43.9099,29.18,51.040084,13.792965,114.77,4.72,3.09,3.56,3.83,3,7,5,43.56
260314,123833200,1395837512960.854,1.8925,0.3235,-10.5022,-2.7826,-4.8695,-0.4869,2.0567,12.237,-32.6584,43.9099,29.18,51.040084,13.792965,114.77,4.72,3.09,3.56,3.83,3,7,5,43.56
260314,123833200,1395837512972.921,1.0296,0.0,-10.3061,-2.0173,-1.8782,-0.4173,1.6416,12.0656,-32.788,43.9099,29.18,51.040084,13.792965,114.77,4.72,3.09,3.56,3.83,3,7,5,43.56
260314,123833200,1395837512990.709,1.8729,-0.5295,-9.3549,-1.9478,-2.0869,-0.626,2.616,12.5432,-32.8478,43.9099,29.18,51.040084,13.792965,114.77,4.72,3.09,3.56,3.83,3,7,5,43.56
260314,123833200,1395837513019.1318,1.1276,0.0294,-10.5513,-2.4347,-6.6782,-0.4869,2.2362,12.3753,-33.098,43.9099,29.18,51.040094,13.792974,114.77,4.71,3.09,3.56,3.83,3,7,5,43.56
260314,123833200,1395837513038.48,0.6275,-0.147,-9.8844,-1.7391,-3.826,-0.2782,2.7007,12.0063,-33.0587,44.42,29.4,51.040094,13.792974,114.82,4.71,3.09,3.56,3.83,3,7,5,43.56
260314,123833300,1395837513051.278,0.5491,-0.0784,-8.8156,-1.8086,-0.1391,-0.4173,2.7012,10.7551,-32.7798,44.42,29.4,51.040094,13.792974,114.82,4.71,3.09,3.56,3.83,3,7,5,43.56
260314,123833300,1395837513070.031,2.5495,-0.0392,-8.2665,-1.4608,-1.5304,-0.3478,2.1246,12.0446,-32.3184,44.42,29.4,51.040094,13.792974,114.82,4.71,3.09,3.56,3.83,3,7,5,43.56
260314,123833300,1395837513090.718,1.5787,0.0392,-10.0904,-1.1826,-3.4782,-0.2086,1.6379,10.1261,-31.805,44.42,29.4,51.040094,13.792974,114.82,4.71,3.09,3.56,3.83,3,7,5,43.56
260314,123833300,1395837513113.478,1.3042,-0.2255,-10.0512,-0.9043,-0.6956,-0.2086,2.1213,10.4921,-32.0245,44.42,29.4,51.040105,13.792984,114.82,4.71,3.09,3.56,3.82,3,7,5,43.56
260314,123833300,1395837513140.4631,2.8339,-0.5589,-9.1784,-1.6,2.226,-0.5565,2.7675,11.1769,-32.2172,45.25,29.28,51.040105,13.792984,114.86,4.71,3.09,3.56,3.82,3,7,5,43.56
260314,123833400,1395837513151.2,1.6376,0.1863,-9.0705,-2.0869,-0.5565,-0.5565,2.2801,10.8401,-32.6546,45.25,29.28,51.040105,13.792984,114.86,4.71,3.09,3.56,3.82,3,7,5,43.56
260314,123833400,1395837513170.732,2.2259,0.0294,-9.6785,-1.9478,-0.5565,-0.7652,3.0084,10.3746,-32.4044,45.25,29.28,51.040105,13.792984,114.86,4.71,3.09,3.56,3.82,3,7,5,43.56
260314,123833400,1395837513190.749,3.0594,-0.5393,-10.6885,-1.8086,-2.3652,-0.6956,2.557,11.8963,-32.3186,45.25,29.28,51.040105,13.792984,114.86,4.71,3.09,3.56,3.82,3,7,5,43.56
260314,123833400,1395837513219.126,1.8141,0.0196,-10.0512,-2.2956,-0.1391,-0.7652,2.6273,11.0352,-32.2245,45.25,29.28,51.040115,13.792992,114.86,2.54,2.35,0.96,3.82,3,7,5,43.56
260314,123833400,1395837513239.48,1.314,-0.4903,-9.8256,-1.7391,-1.8782,-0.0695,2.818,11.0556,-32.0318,45.33,29.2,51.040115,13.792992,114.9,2.54,2.35,0.96,3.82,3,7,5,43.56
260314,123833500,1395837513253.123,2.1181,-0.353,-10.3257,-1.9478,-5.7043,-0.0695,2.7611,11.9162,-31.699,45.33,29.2,51.040115,13.792992,114.9,2.54,2.35,0.96,3.82,3,7,5,43.56
260314,123833500,1395837513270.205,1.7062,-0.9315,-10.5218,-1.6695,-7.8608,0.2782,2.6684,12.6158,-31.4101,45.33,29.2,51.040115,13.792992,114.9,2.54,2.35,0.96,3.82,3,7,5,43.56
260314,123833500,1395837513290.579,1.2649,-1.059,-10.8356,-1.0434,-6.4695,0.626,2.2813,12.5093,-31.2935,45.33,29.2,51.040115,13.792992,114.9,2.54,2.35,0.96,3.82,3,7,5,43.56
260314,123833500,1395837513313.56,2.8241,-0.5295,-9.5805,-1.5304,-5.1478,0.626,2.7729,12.3163,-31.2051,45.33,29.2,51.040125,13.793001,114.9,2.54,2.35,0.96,3.82,3,7,5,43.56
260314,123833500,1395837513339.4648,3.0496,-0.5295,-8.7764,-1.3217,-2.5043,0.4173,2.1762,11.7536,-31.2279,45.85,29.16,51.040125,13.793001,114.96,2.54,2.35,0.96,3.82,3,7,5,43.56
260314,123833500,1395837513358.122,1.5885,-0.0098,-9.149,-1.8782,-4.1043,-0.0695,1.7584,10.0605,-31.1224,45.85,29.16,51.040125,13.793001,114.96,2.54,2.35,0.96,3.82,3,7,5,43.56
260314,123833600,1395837513370.1702,1.9514,-0.147,-10.0021,-2.0173,-4.313,-0.2086,2.2106,10.6097,-30.6349,45.85,29.16,51.040125,13.793001,114.96,2.54,2.35,0.96,3.82,3,7,5,43.56
260314,123833600,1395837513390.264,1.5493,-0.049,-9.7766,-2.1565,-0.4173,-0.626,2.6848,9.8577,-30.5653,45.85,29.16,51.040125,13.793001,114.96,2.54,2.35,0.96,3.82,3,7,5,43.56
260314,123833600,1395837513418.887,2.4024,-0.6079,-8.7371,-1.6,-4.5913,0.0695,2.2423,12.1173,-30.5658,45.85,29.16,51.040136,13.79301,114.96,2.54,2.35,0.96,3.81,3,7,5,43.56
260314,123833600,1395837513432.959,1.4611,-0.1372,-10.2473,-1.113,-6.5391,0.0,1.7662,11.0769,-30.6739,46.35,29.08,51.040136,13.79301,115.01,2.54,2.35,0.96,3.81,3,7,5,43.56
260314,123833600,1395837513450.9438,2.5986,-0.1274,-9.6785,-0.7652,0.8347,-0.1391,1.6268,11.671,-31.1441,46.35,29.08,51.040136,13.79301,115.01,2.54,2.35,0.96,3.81,3,7,5,43.56
260314,123833700,1395837513470.758,2.7162,-0.147,-8.7666,-0.626,-1.1826,0.0695,1.5067,10.9359,-31.5588,46.35,29.08,51.040136,13.79301,115.01,2.54,2.35,0.96,3.81,3,7,5,43.56
260314,123833700,1395837513489.9348,1.5395,-0.5785,-9.9335,-0.7652,-3.826,0.4869,2.1077,10.1771,-31.8955,46.35,29.08,51.040136,13.79301,115.01,2.54,2.35,0.96,3.81,3,7,5,43.56
260314,123833700,1395837513519.9001,1.4512,-0.451,-10.0315,-1.0434,-2.3652,0.0695,2.4124,10.5489,-32.2494,46.35,29.08,51.040147,13.793019,115.01,4.71,3.09,3.56,3.81,3,7,5,43.56
260314,123833700,1395837513539.5032,2.1671,-0.2059,-10.3846,-1.3913,-1.5304,-0.0695,2.2075,11.2681,-32.6196,46.97,28.84,51.040147,13.793019,115.06,4.71,3.09,3.56,3.81,3,7,5,43.56
260314,123833700,1395837513551.626,1.971,-0.0392,-10.4924,-1.0434,-4.0347,0.2086,2.3442,11.271,-32.8957,46.97,28.84,51.040147,13.793019,115.06,4.71,3.09,3.56,3.81,3,7,5,43.56
260314,123833800,1395837513570.769,1.5199,-0.8139,-10.4434,-0.9043,-3.2,0.2086,2.435,11.0344,-32.8955,46.97,28.84,51.040147,13.793019,115.06,4.71,3.09,3.56,3.81,3,7,5,43.56
260314,123833800,1395837513589.88,2.422,-1.0394,-9.5903,-1.7391,-1.6,0.2086,3.9642,11.0612,-32.6421,46.97,28.84,51.040147,13.793019,115.06,4.71,3.09,3.56,3.81,3,7,5,43.56
260314,123833800,1395837513619.266,1.1963,-0.5589,-9.8746,-1.4608,-6.2608,0.1391,3.1824,10.5202,-32.7585,46.97,28.84,51.040158,13.793028,115.06,4.71,3.09,3.56,3.8,3,7,5,43.56
260314,123833800,1395837513633.259,1.1276,-0.657,-10.8651,-1.6695,-5.7043,0.2782,3.2199,10.8098,-32.7184,47.34,28.85,51.040158,13.793028,115.11,4.71,3.09,3.56,3.8,3,7,5,43.56
260314,123833800,1395837513651.7998,1.2551,-0.3922,-9.6981,-1.8086,-4.0347,0.3478,3.435,10.5163,-32.6578,47.34,28.85,51.040158,13.793028,115.11,4.71,3.09,3.56,3.8,3,7,5,43.56
260314,123833900,1395837513670.783,2.2357,-0.3628,-9.4236,-2.1565,-4.9391,0.1391,3.2823,12.1779,-32.8952,47.34,28.85,51.040158,13.793028,115.11,4.71,3.09,3.56,3.8,3,7,5,43.56
260314,123833900,1395837513689.888,2.5005,-0.3628,-10.1884,-1.6,-5.0086,0.2086,2.7862,12.6163,-33.0618,47.34,28.85,51.040158,13.793028,115.11,4.71,3.09,3.56,3.8,3,7,5,43.56
260314,123833900,1395837513719.406,2.069,-0.2059,-9.6883,-2.0173,-4.2434,-0.2086,1.9798,11.8997,-32.9892,47.34,28.85,51.040169,13.793037,115.11,4.71,3.09,3.56,3.8,3,7,5,43.56
260314,123833900,1395837513739.468,0.7354,0.0392,-9.9727,-1.5304,-3.2,0.0695,2.1121,11.6612,-33.0013,47.6599,28.9,51.040169,13.793037,115.16,4.71,3.09,3.56,3.8,3,7,5,43.56
260314,123833900,1395837513752.136,0.9707,-0.4804,-9.2274,-2.0173,-1.4608,0.1391,2.9413,10.9247,-32.8624,47.6599,28.9,51.040169,13.793037,115.16,4.71,3.09,3.56,3.8,3,7,5,43.56
260314,123834000,1395837513770.7952,3.0202,-0.6668,-9.855,-2.3652,-3.8956,0.0,3.002,13.1791,-32.9959,47.6599,28.9,51.040169,13.793037,115.16,4.71,3.09,3.56,3.8,3,7,5,43.56
260314,123834000,1395837513790.78,1.5101,-0.8237,-10.7572,-2.2956,-6.1217,0.1391,2.7562,13.5483,-33.5714,47.6599,28.9,51.040169,13.793037,115.16,4.71,3.09,3.56,3.8,3,7,5,43.56
260314,123834000,1395837513819.9648,1.8533,-0.5589,-9.6785,-2.5739,-2.7826,0.0695,2.6274,13.844,-34.1072,47.6599,28.9,51.040179,13.793046,115.16,4.71,3.09,3.56,3.8,3,7,5,43.56
260314,123834000,1395837513839.511,3.5595,-0.4118,-8.7666,-3.1304,-1.0434,-0.4173,2.7404,14.5264,-34.4629,47.7299,28.9,51.040179,13.793046,115.2,4.71,3.09,3.56,3.8,3,7,5,43.56
260314,123834000,1395837513852.043,2.0788,0.049,-9.6687,-2.5043,-4.3826,0.0,1.0866,14.5151,-35.2613,47.7299,28.9,51.040179,13.793046,115.2,4.71,3.09,3.56,3.8,3,7,5,43.56
260314,123834100,1395837513869.986,1.4512,-0.755,-9.4824,-1.6695,-2.1565,0.0695,1.7832,13.4311,-34.2025,47.7299,28.9,51.040179,13.793046,115.2,4.71,3.09,3.56,3.8,3,7,5,43.56
260314,123834100,1395837513890.816,1.8435,-1.314,-8.3841,-3.3391,-1.4608,-0.5565,4.5748,12.2858,-33.511,47.7299,28.9,51.040179,13.793046,115.2,4.71,3.09,3.56,3.8,3,7,5,43.56
260314,123834100,1395837513913.31,0.9904,-0.9806,-8.7469,-4.9391,-1.7391,-0.3478,5.8494,12.8709,-33.7862,47.7299,28.9,51.04019,13.793055,115.2,4.71,3.09,3.55,3.79,3,7,5,43.56
260314,123834100,1395837513939.541,2.324,-1.1865,-7.6487,-7.9304,3.826,-1.8086,7.5244,12.3123,-33.8269,48.35,28.75,51.04019,13.793055,115.25,4.71,3.09,3.55,3.79,3,7,5,43.56
260314,123834100,1395837513956.785,1.9415,0.1961,-11.2475,-7.7913,-1.2521,-0.8347,6.8588,12.9904,-34.0197,48.35,28.75,51.04019,13.793055,115.25,4.71,3.09,3.55,3.79,3,7,5,43.56
260314,123834200,1395837513969.996,2.0788,-0.0686,-10.6199,-5.0086,2.0869,-0.6956,4.0903,12.2566,-34.3795,48.35,28.75,51.04019,13.793055,115.25,4.71,3.09,3.55,3.79,3,7,5,43.56
260314,123834200,1395837513989.897,-1.0394,-0.2059,-7.1191,-5.1478,2.5043,-0.626,3.647,11.4237,-34.1426,48.35,28.75,51.04019,13.793055,115.25,4.71,3.09,3.55,3.79,3,7,5,43.56
260314,123834200,1395837514019.917,5.1285,0.7256,-10.5807,-4.7304,-3.4782,-0.9739,4.1064,12.5191,-33.8807,48.35,28.75,51.040201,13.793064,115.25,4.71,3.09,3.55,3.79,3,7,5,43.56
260314,123834200,1395837514039.458,2.3632,2.1475,-13.2773,0.1391,3.6173,0.1391,0.9825,12.3484,-34.2767,48.44,28.84,51.040201,13.793064,115.3,4.71,3.09,3.55,3.79,3,7,5,43.56
260314,123834200,1395837514058.029,1.6964,1.1865,-9.806,3.3391,2.0869,0.3478,-0.9805,12.4663,-33.5522,48.44,28.84,51.040201,13.793064,115.3,4.71,3.09,3.55,3.79,3,7,5,43.56
260314,123834300,1395837514069.9639,1.108,-2.5201,-9.149,2.0869,-6.1217,1.1826,1.5949,11.0079,-32.5184,48.44,28.84,51.040201,13.793064,115.3,4.71,3.09,3.55,3.79,3,7,5,43.56
260314,123834300,1395837514090.02,1.8141,-0.4314,-12.4438,-0.1391,-7.6521,1.2521,1.8192,11.015,-32.4225,48.44,28.84,51.040201,13.793064,115.3,4.71,3.09,3.55,3.79,3,7,5,43.56
260314,123834300,1395837514119.62,4.4813,-0.3824,-8.6783,-0.4173,-0.9043,0.2782,1.776,11.1588,-32.3719,48.44,28.84,51.040212,13.793072,115.3,4.71,3.09,3.56,3.77,3,7,5,43.56
260314,123834300,1395837514139.533,1.363,0.5589,-12.8557,1.5304,-15.7913,0.626,0.4964,11.3424,-32.484,48.76,28.32,51.040212,13.793072,115.35,4.71,3.09,3.56,3.77,3,7,5,43.56
260314,123834300,1395837514158.45,3.1477,-0.1568,-11.3455,1.3913,-3.1304,0.9739,0.8898,12.0168,-32.1641,48.76,28.32,51.040212,13.793072,115.35,4.71,3.09,3.56,3.77,3,7,5,43.56
260314,123834400,1395837514170.1912,-1.2845,-1.8337,-9.7668,0.3478,-1.1826,0.1391,1.4607,10.5614,-32.0248,48.76,28.32,51.040212,13.793072,115.35,4.71,3.09,3.56,3.77,3,7,5,43.56
260314,123834400,1395837514189.921,3.5792,2.4613,-12.5321,-1.6,-21.8434,0.2782,1.5038,11.3217,-32.0043,48.76,28.32,51.040212,13.793072,115.35,4.71,3.09,3.56,3.77,3,7,5,43.56
260314,123834400,1395837514219.317,1.2551,0.0784,-12.0712,-0.2086,1.5304,-0.2782,1.5015,8.6188,-31.7221,48.76,28.32,51.040223,13.793081,115.35,2.54,2.35,0.96,3.78,3,7,5,43.56
260314,123834400,1395837514233.308,1.1375,-0.9904,-8.5214,1.4608,5.0782,0.1391,2.3587,8.79,-31.1495,48.78,28.22,51.040223,13.793081,115.39,2.54,2.35,0.96,3.78,3,7,5,43.56
260314,123834400,1395837514251.291,4.9912,-0.3137,-9.2078,0.2782,-10.7826,0.9043,3.0855,9.6173,-30.8921,48.78,28.22,51.040223,13.793081,115.39,2.54,2.35,0.96,3.78,3,7,5,43.56
260314,123834500,1395837514269.97,-1.2257,0.0294,-12.5223,0.4869,-9.9478,1.113,2.8744,8.4584,-30.9626,48.78,28.22,51.040223,13.793081,115.39,2.54,2.35,0.96,3.78,3,7,5,43.56
260314,123834500,1395837514289.9922,1.971,-0.2647,-9.0215,0.0695,2.5043,0.4869,2.8462,8.6421,-30.954,48.78,28.22,51.040223,13.793081,115.39,2.54,2.35,0.96,3.78,3,7,5,43.56
260314,123834500,1395837514318.603,3.8145,-0.1568,-8.2076,0.2782,-3.2,0.4869,2.3704,8.7798,-30.8431,48.78,28.22,51.040233,13.793089,115.39,2.54,2.35,0.96,3.77,3,7,5,43.56
260314,123834500,1395837514339.459,-0.5883,-0.2157,-10.7964,0.2086,-7.7913,0.626,2.9069,7.4225,-30.8521,48.9099,28.37,51.040233,13.793089,115.44,2.54,2.35,0.96,3.77,3,7,5,43.56
260314,123834500,1395837514358.429,1.3924,-0.5393,-11.0318,0.7652,-2.0173,0.5565,2.4123,8.1237,-30.6828,48.9099,28.37,51.040233,13.793089,115.44,2.54,2.35,0.96,3.77,3,7,5,43.56
260314,123834600,1395837514379.112,3.8341,-0.5491,-8.2861,-0.626,0.6956,-0.1391,3.2449,9.6564,-30.4569,48.9099,28.37,51.040233,13.793089,115.44,2.54,2.35,0.96,3.77,3,7,5,43.56
260314,123834600,1395837514399.556,1.5101,-0.2647,-8.9725,-0.6956,-3.4086,-0.1391,3.1977,8.2311,-30.6812,48.9099,28.37,51.040233,13.793089,115.44,2.54,2.35,0.96,3.77,3,7,5,43.56
260314,123834600,1395837514419.3262,1.7356,-0.3824,-9.7177,-0.3478,-2.2956,-0.1391,2.9643,9.6885,-30.9407,48.9099,28.37,51.040243,13.793098,115.44,2.54,2.35,0.96,3.76,3,7,5,43.56
260314,123834600,1395837514439.484,2.2946,-0.2549,-8.7568,-1.3913,1.2521,-0.4869,3.0135,8.5297,-31.066,48.64,28.59,51.040243,13.793098,115.53,2.54,2.35,0.96,3.76,3,7,5,43.56
260314,123834600,1395837514458.434,0.7746,-0.5001,-9.855,-2.226,-4.0347,-0.626,3.4917,8.9544,-31.4109,48.64,28.59,51.040243,13.793098,115.53,2.54,2.35,0.96,3.76,3,7,5,43.56
260314,123834700,1395837514479.114,1.2061,-0.5981,-9.9727,-2.0869,-1.8782,-0.4869,3.6346,9.8536,-31.736,48.64,28.59,51.040243,13.793098,115.53,2.54,2.35,0.96,3.76,3,7,5,43.56
260314,123834700,1395837514499.094,1.3434,-0.5687,-9.5707,-2.226,-0.7652,-0.5565,3.6716,9.3773,-31.9652,48.64,28.59,51.040243,13.793098,115.53,2.54,2.35,0.96,3.76,3,7,5,43.56
260314,123834700,1395837514519.5898,1.8337,-0.3726,-9.0705,-2.3652,-3.5478,-0.5565,2.7328,10.6286,-32.1319,48.64,28.59,51.040254,13.793107,115.53,4.71,3.09,3.56,3.75,3,7,5,43.55
260314,123834700,1395837514539.457,0.6962,-0.5295,-9.5314,-2.2956,-5.913,-0.5565,2.8173,10.4005,-32.1292,48.63,28.72,51.040254,13.793107,115.66,4.71,3.09,3.56,3.75,3,7,5,43.55
260314,123834700,1395837514558.378,1.5493,-0.6471,-9.3647,-2.5043,-0.5565,-0.626,3.2007,9.3181,-31.8291,48.63,28.72,51.040254,13.793107,115.66,4.71,3.09,3.56,3.75,3,7,5,43.55
260314,123834800,1395837514580.049,2.1573,-0.2451,-9.502,-2.0173,-1.7391,-0.6956,2.4121,11.068,-31.9578,48.63,28.72,51.040254,13.793107,115.66,4.71,3.09,3.56,3.75,3,7,5,43.55
260314,123834800,1395837514600.135,2.7456,0.3726,-9.7864,-2.0869,-4.8,-0.3478,1.9983,11.1675,-32.0155,48.63,28.72,51.040254,13.793107,115.66,4.71,3.09,3.56,3.75,3,7,5,43.55
260314,123834800,1395837514613.7659,2.9222,-0.0686,-9.7177,-2.3652,-0.2782,-0.6956,2.5647,11.0816,-31.9884,48.63,28.72,51.040254,13.793107,115.66,4.71,3.09,3.56,3.75,3,7,5,43.55
260314,123834800,1395837514639.4639,2.2455,0.0882,-8.4626,-2.0869,2.7826,-0.8347,1.7434,11.2884,-32.2443,48.62,28.62,51.040264,13.793116,115.8,4.71,3.09,3.56,3.74,3,7,5,43.55
260314,123834800,1395837514652.6091,1.971,-0.3824,-10.2865,-1.8782,-2.226,-0.4173,2.6479,9.9802,-32.0911,48.62,28.62,51.040264,13.793116,115.8,4.71,3.09,3.56,3.74,3,7,5,43.55
260314,123834900,1395837514669.905,1.6179,-0.2549,-10.9043,-2.0173,-2.5739,-0.3478,1.7365,9.8249,-32.1346,48.62,28.62,51.040264,13.793116,115.8,4.71,3.09,3.56,3.74,3,7,5,43.55
260314,123834900,1395837514690.0051,2.3044,-0.3235,-9.6883,-2.6434,-0.0695,-0.6956,2.8599,10.5922,-31.9302,48.62,28.62,51.040264,13.793116,115.8,4.71,3.09,3.56,3.74,3,7,5,43.55
260314,123834900,1395837514711.249,1.6474,-0.0588,-10.4336,-2.8521,-6.2608,-0.4869,2.0305,11.7685,-32.3729,48.62,28.62,51.040264,13.793116,115.8,4.71,3.09,3.56,3.74,3,7,5,43.55
260314,123834900,1395837514740.0889,0.5197,-0.2549,-11.4436,-1.8086,-7.0956,0.2782,1.4087,11.9762,-32.4965,48.58,28.67,51.040274,13.793125,115.93,4.71,3.09,3.55,3.72,3,7,5,43.55
260314,123834900,1395837514752.6091,1.8631,-0.2157,-10.2375,-1.6,-2.5043,0.0,1.7079,11.9363,-32.0091,48.58,28.67,51.040274,13.793125,115.93,4.71,3.09,3.55,3.72,3,7,5,43.55
260314,123835000,1395837514770.25,2.4122,0.0784,-9.9041,-1.2521,-6.1217,0.0695,1.6718,11.6531,-31.0156,48.58,28.67,51.040274,13.793125,115.93,4.71,3.09,3.55,3.72,3,7,5,43.55
260314,123835000,1395837514789.967,0.8629,-0.1176,-10.7082,-1.3913,-7.8608,-0.0695,1.7007,10.2428,-30.5309,48.58,28.67,51.040274,13.793125,115.93,4.71,3.09,3.55,3.72,3,7,5,43.55
260314,123835000,1395837514810.659,1.2649,-0.4118,-10.2571,-1.113,-3.2,0.0695,2.5013,9.1586,-29.762,48.58,28.67,51.040274,13.793125,115.93,4.71,3.09,3.55,3.72,3,7,5,43.55
260314,123835000,1395837514832.5852,3.3046,-0.147,-8.6685,-1.3217,-1.7391,0.0,2.2742,11.0944,-30.0685,48.56,28.91,51.040284,13.793135,116.13,4.71,3.09,3.55,3.71,3,7,5,43.55
260314,123835000,1395837514851.326,2.7751,-0.3824,-9.4432,-1.8086,-5.2869,-0.3478,2.2435,10.747,-30.3524,48.56,28.91,51.040284,13.793135,116.13,4.71,3.09,3.55,3.71,3,7,5,43.55
260314,123835100,1395837514870.034,0.2059,-0.0882,-10.4434,-1.6695,-1.6,-0.4869,1.9959,10.0201,-30.6652,48.56,28.91,51.040284,13.793135,116.13,4.71,3.09,3.55,3.71,3,7,5,43.55
260314,123835100,1395837514890.037,0.8237,-0.0294,-9.4726,-1.6,-0.1391,0.0,1.9802,9.7812,-30.4944,48.56,28.91,51.040284,13.793135,116.13,4.71,3.09,3.55,3.71,3,7,5,43.55
260314,123835100,1395837514910.6482,1.7748,0.049,-10.6199,-0.9739,-5.0086,-0.2086,1.3539,10.1691,-30.1272,48.56,28.91,51.040284,13.793135,116.13,4.71,3.09,3.55,3.71,3,7,5,43.55
260314,123835100,1395837514940.0789,1.9808,-0.4608,-9.502,-1.5304,-1.0434,-0.0695,2.8292,9.3934,-29.5376,48.53,28.94,51.040294,13.793144,116.32,4.71,3.09,3.55,3.7,3,7,5,43.55
260314,123835100,1395837514953.588,0.7354,-0.6766,-10.2473,-1.8782,-3.2695,-0.0695,2.739,10.8132,-29.7925,48.53,28.94,51.040294,13.793144,116.32,4.71,3.09,3.55,3.7,3,7,5,43.55
260314,123835200,1395837514970.063,2.5201,-0.5197,-8.8254,-1.3913,-1.7391,-0.1391,1.8084,11.0211,-30.0414,48.53,28.94,51.040294,13.793144,116.32,4.71,3.09,3.55,3.7,3,7,5,43.55
260314,123835200,1395837514990.0552,1.8239,-0.3137,-10.4336,-1.6695,-6.9565,-0.0695,1.7012,10.5997,-30.1625,48.53,28.94,51.040294,13.793144,116.32,4.71,3.09,3.55,3.7,3,7,5,43.55
260314,123835200,1395837515010.671,1.6474,-0.4118,-10.0904,-1.8782,0.7652,-0.3478,2.6508,9.2662,-30.0669,48.53,28.94,51.040294,13.793144,116.32,4.71,3.09,3.55,3.7,3,7,5,43.55
260314,123835200,1395837515040.133,2.4711,-0.2647,-8.4037,-1.6,0.4869,-0.3478,2.2854,10.1125,-29.6291,48.56,28.93,51.040304,13.793154,116.48,4.71,3.09,3.55,3.69,3,7,5,43.55
260314,123835200,1395837515054.569,0.6275,-0.5491,-9.3647,-1.4608,-4.4521,-0.3478,2.5741,10.4998,-29.0963,48.56,28.93,51.040304,13.793154,116.48,4.71,3.09,3.55,3.69,3,7,5,43.55
260314,123835300,1395837515070.099,1.5787,-0.1961,-10.3061,-1.4608,-4.8,-0.2086,1.7667,10.2301,-28.8898,48.56,28.93,51.040304,13.793154,116.48,4.71,3.09,3.55,3.69,3,7,5,43.55
260314,123835300,1395837515090.023,1.1571,-0.4608,-9.7374,-1.9478,-1.7391,-0.4869,2.4962,9.5443,-28.7006,48.56,28.93,51.040304,13.793154,116.48,4.71,3.09,3.55,3.69,3,7,5,43.55
260314,123835300,1395837515110.6921,0.1078,-0.1961,-10.2963,-1.6695,-2.5739,-0.0695,2.1796,9.602,-29.0646,48.56,28.93,51.040304,13.793154,116.48,4.71,3.09,3.55,3.69,3,7,5,43.55
260314,123835300,1395837515139.545,1.3042,-0.804,-9.3059,-1.8086,-4.1043,-0.2782,2.6022,11.27,-29.2911,48.58,28.73,51.040315,13.793163,116.67,4.71,3.09,3.56,3.69,3,7,5,43.55
260314,123835300,1395837515150.322,2.4319,-0.3824,-9.5903,-2.2956,-4.313,-0.0695,2.2899,11.1706,-29.6024,48.58,28.73,51.040315,13.793163,116.67,4.71,3.09,3.56,3.69,3,7,5,43.55
260314,123835400,1395837515169.957,1.8925,-0.5393,-9.0215,-2.1565,0.626,-0.4173,2.3618,10.857,-29.8054,48.58,28.73,51.040315,13.793163,116.67,4.71,3.09,3.56,3.69,3,7,5,43.55
260314,123835400,1395837515189.982,1.6964,-0.098,-8.4037,-1.5304,-1.9478,-0.5565,1.1225,11.0727,-29.988,48.58,28.73,51.040315,13.793163,116.67,4.71,3.09,3.56,3.69,3,7,5,43.55
260314,123835400,1395837515210.622,1.3826,-0.3432,-10.0315,-1.6,-3.9652,-0.4173,1.5775,10.4426,-29.7457,48.58,28.73,51.040315,13.793163,116.67,4.71,3.09,3.56,3.69,3,7,5,43.55
260314,123835400,1395837515240.087,2.1671,-0.402,-9.4628,-1.3217,0.6956,0.0695,1.9065,10.2501,-29.706,48.6,28.77,51.040325,13.793172,116.79,2.54,2.35,0.96,3.69,3,7,5,43.55
260314,123835400,1395837515256.613,3.0692,-0.5099,-7.9429,-1.6695,2.4347,-0.4173,2.3013,10.5179,-29.8752,48.6,28.77,51.040325,13.793172,116.79,2.54,2.35,0.96,3.69,3,7,5,43.55
260314,123835500,1395837515270.081,0.9315,-0.147,-9.9727,-1.7391,-4.6608,-0.0695,2.0992,8.5999,-30.3029,48.6,28.77,51.040325,13.793172,116.79,2.54,2.35,0.96,3.69,3,7,5,43.55
260314,123835500,1395837515290.009,1.4022,-0.0392,-10.2865,-1.3217,-2.6434,0.0695,1.2991,9.4263,-30.378,48.6,28.77,51.040325,13.793172,116.79,2.54,2.35,0.96,3.69,3,7,5,43.55
260314,123835500,1395837515310.803,2.2455,-0.2059,-9.4922,-1.113,0.7652,-0.1391,1.3477,9.7068,-29.8965,48.6,28.77,51.040325,13.793172,116.79,2.54,2.35,0.96,3.69,3,7,5,43.55
260314,123835500,1395837515332.947,0.3824,-1.0492,-9.2961,-2.0173,-1.7391,0.0,2.7381,8.7837,-29.8043,48.63,28.9,51.040335,13.793182,116.95,2.54,2.35,0.96,3.68,3,7,5,43.55
260314,123835500,1395837515350.076,0.8237,-0.0294,-10.3159,-1.8086,-4.2434,0.1391,2.1467,9.572,-30.2244,48.63,28.9,51.040335,13.793182,116.95,2.54,2.35,0.96,3.68,3,7,5,43.55
260314,123835600,1395837515370.134,1.3924,-0.2745,-10.0119,-1.6695,-3.6173,-0.1391,1.6758,10.5935,-30.3369,48.63,28.9,51.040335,13.793182,116.95,2.54,2.35,0.96,3.68,3,7,5,43.55
260314,123835600,1395837515390.955,2.5887,0.147,-9.3451,-1.8086,-2.3652,-0.1391,2.12,11.1249,-30.0903,48.63,28.9,51.040335,13.793182,116.95,2.54,2.35,0.96,3.68,3,7,5,43.55
260314,123835600,1395837515410.709,1.0884,-0.5589,-10.0806,-1.4608,-2.5043,0.1391,2.5645,9.4881,-29.9905,48.63,28.9,51.040335,13.793182,116.95,2.54,2.35,0.96,3.68,3,7,5,43.55
260314,123835600,1395837515432.962,0.3334,-0.3628,-10.463,-1.0434,-5.7043,0.2086,1.8733,10.0323,-30.1442,48.6599,28.92,51.040345,13.793191,117.1,4.71,3.09,3.56,3.67,3,7,5,43.55
260314,123835600,1395837515450.0981,2.324,-0.5393,-9.453,-1.2521,-3.5478,-0.0695,2.2863,11.3727,-30.1505,48.6599,28.92,51.040345,13.793191,117.1,4.71,3.09,3.56,3.67,3,7,5,43.55
260314,123835700,1395837515470.169,2.5887,-0.5197,-9.6491,-0.626,-2.0869,0.0,1.7065,10.5443,-30.2329,48.6599,28.92,51.040345,13.793191,117.1,4.71,3.09,3.56,3.67,3,7,5,43.55
260314,123835700,1395837515490.078,2.0494,-0.6471,-9.7668,-0.6956,-3.9652,0.2086,2.3552,10.6892,-30.0989,48.6599,28.92,51.040345,13.793191,117.1,4.71,3.09,3.56,3.67,3,7,5,43.55
260314,123835700,1395837515510.696,0.8825,-0.3235,-9.2471,-1.2521,-0.8347,0.0,2.4244,9.9275,-30.4253,48.6599,28.92,51.040345,13.793191,117.1,4.71,3.09,3.56,3.67,3,7,5,43.55
260314,123835700,1395837515540.332,3.5301,0.098,-9.2471,-0.8347,-2.7826,-0.3478,1.6917,10.6515,-30.479,48.7,28.9,51.040355,13.7932,117.25,4.71,3.09,3.56,3.66,3,7,5,43.55
260314,123835700,1395837515559.822,2.324,-0.5197,-10.0904,-1.113,1.3913,-0.7652,2.346,10.2884,-30.3954,48.7,28.9,51.040355,13.7932,117.25,4.71,3.09,3.56,3.66,3,7,5,43.55
260314,123835800,1395837515572.733,0.1078,-0.804,-9.5608,-1.6695,-2.0173,-0.6956,2.7717,9.0435,-30.4309,48.7,28.9,51.040355,13.7932,117.25,4.71,3.09,3.56,3.66,3,7,5,43.55
260314,123835800,1395837515590.1438,0.1176,0.1667,-9.7079,-1.3217,-5.2173,0.2086,2.0437,9.7384,-30.6304,48.7,28.9,51.040355,13.7932,117.25,4.71,3.09,3.56,3.66,3,7,5,43.55
260314,123835800,1395837515610.788,1.8631,-0.9315,-10.3649,0.0,-1.1826,0.1391,1.8897,9.7179,-30.0773,48.7,28.9,51.040355,13.7932,117.25,4.71,3.09,3.56,3.66,3,7,5,43.55
260314,123835800,1395837515638.741,3.03,-0.5589,-8.6979,-0.626,0.3478,0.0,2.4753,10.3505,-30.175,48.7,28.9,51.040365,13.793209,117.4,4.71,3.09,3.56,3.65,3,7,5,43.55
260314,123835800,1395837515650.357,1.7356,-0.2549,-9.551,-0.9739,-6.8173,-0.0695,2.2169,10.1793,-30.4098,49.31,29.36,51.040365,13.793209,117.4,4.71,3.09,3.56,3.65,3,7,5,43.55
260314,123835900,1395837515670.1118,-0.402,0.1568,-10.767,-1.3913,-2.0173,-0.2782,2.5122,9.5464,-30.4037,49.31,29.36,51.040365,13.793209,117.4,4.71,3.09,3.56,3.65,3,7,5,43.55
260314,123835900,1395837515690.0151,2.726,-0.5393,-9.0902,-1.6695,0.8347,-0.4173,2.8269,11.5747,-30.3947,49.31,29.36,51.040365,13.793209,117.4,4.71,3.09,3.56,3.65,3,7,5,43.55
260314,123835900,1395837515710.754,2.5593,-0.6373,-9.198,-2.4347,-4.8,-0.3478,3.6756,10.9564,-30.6832,49.31,29.36,51.040365,13.793209,117.4,4.71,3.09,3.56,3.65,3,7,5,43.55
260314,123835900,1395837515738.558,-2.1279,-0.8433,-10.8651,-3.826,0.626,-0.2782,4.9096,10.0558,-30.654,49.31,29.36,51.040375,13.793218,117.53,4.71,3.09,3.56,3.64,3,7,5,43.55
260314,123835900,1395837515759.885,2.0592,-0.4412,-9.0804,-3.1304,4.4521,-0.6956,3.5554,11.4576,-31.1736,49.04,29.36,51.040375,13.793218,117.53,4.71,3.09,3.56,3.64,3,7,5,43.55
260314,123836000,1395837515780.093,2.5789,-0.5393,-10.0119,-3.0608,-4.0347,-0.2782,2.6987,10.7994,-31.1325,49.04,29.36,51.040375,13.793218,117.53,4.71,3.09,3.56,3.64,3,7,5,43.55
260314,123836000,1395837515800.124,-0.5001,-0.5589,-11.5809,-2.2956,-6.5391,0.0,2.8059,10.5891,-30.9177,49.04,29.36,51.040375,13.793218,117.53,4.71,3.09,3.56,3.64,3,7,5,43.55
260314,123836000,1395837515820.52,2.1965,-0.2941,-9.6883,-1.4608,1.1826,0.1391,2.2638,11.2791,-30.6316,49.04,29.36,51.040375,13.793218,117.53,4.71,3.09,3.56,3.64,3,7,5,43.55
260314,123836000,1395837515840.832,2.6574,0.0784,-9.3059,-1.9478,-1.6,-0.2782,2.3882,12.0407,-30.3473,49.04,29.36,51.040385,13.793227,117.66,4.72,3.09,3.56,3.63,3,7,5,43.55
260314,123836000,1395837515859.483,1.0982,-0.1961,-10.0413,-2.226,-0.8347,-0.1391,2.2645,10.0313,-30.0601,49.13,29.04,51.040385,13.793227,117.66,4.72,3.09,3.56,3.63,3,7,5,43.55
260314,123836100,1395837515879.462,1.2845,-0.6668,-9.9237,-1.8086,-1.6,-0.2086,3.0676,10.0294,-29.9254,49.13,29.04,51.040385,13.793227,117.66,4.72,3.09,3.56,3.63,3,7,5,43.55
260314,123836100,1395837515890.394,1.0982,-1.0688,-10.8356,-2.3652,-3.0608,0.2782,3.7833,8.9029,-29.9869,49.13,29.04,51.040385,13.793227,117.66,4.72,3.09,3.56,3.63,3,7,5,43.55
260314,123836100,1395837515910.816,2.9516,-0.2745,-10.6395,-3.826,-6.8869,-0.2086,3.564,10.5491,-30.2079,49.13,29.04,51.040385,13.793227,117.66,4.72,3.09,3.56,3.63,3,7,5,43.55
260314,123836100,1395837515933.446,2.2063,0.1765,-9.551,-3.8956,-3.5478,-0.5565,2.723,9.4347,-30.2167,49.13,29.04,51.040395,13.793237,117.78,4.72,3.09,3.56,3.63,3,7,5,43.55
260314,123836100,1395837515950.154,1.5787,-0.2745,-9.1,-2.7826,-2.5043,-0.626,2.3698,9.8072,-30.066,49.18,29.1,51.040395,13.793237,117.78,4.72,3.09,3.56,3.63,3,7,5,43.55
260314,123836200,1395837515970.243,1.4414,-0.0392,-11.1396,-2.5043,-9.2521,-0.3478,1.9657,11.0021,-29.9931,49.18,29.1,51.040395,13.793237,117.78,4.72,3.09,3.56,3.63,3,7,5,43.55
260314,123836200,1395837515990.04,1.5591,0.2647,-10.6984,-1.113,-4.3826,0.0,1.2312,10.6036,-29.9911,49.18,29.1,51.040395,13.793237,117.78,4.72,3.09,3.56,3.63,3,7,5,43.55
260314,123836200,1395837516010.7861,2.3338,-0.8727,-9.1294,-0.7652,-0.4869,0.2782,2.3652,10.4673,-29.6611,49.18,29.1,51.040395,13.793237,117.78,4.72,3.09,3.56,3.63,3,7,5,43.55
260314,123836200,1395837516031.365,2.5005,-0.451,-9.5903,-1.3217,-4.6608,0.3478,2.323,10.2017,-29.7633,49.18,29.1,51.040405,13.793245,117.86,4.71,3.09,3.56,3.62,3,7,5,43.55
260314,123836200,1395837516059.4438,0.3039,-0.2647,-10.5807,-1.8782,-6.3304,0.1391,2.1722,10.5109,-29.9424,48.31,28.74,51.040405,13.793245,117.86,4.71,3.09,3.56,3.62,3,7,5,43.55
260314,123836300,1395837516080.039,3.2359,-0.4608,-9.149,-1.3913,-3.2695,0.626,2.6262,10.9058,-30.4503,48.31,28.74,51.040405,13.793245,117.86,4.71,3.09,3.56,3.62,3,7,5,43.55
260314,123836300,1395837516091.84,3.1281,-0.2157,-9.8452,-0.9043,-4.1739,0.4173,1.7101,10.3722,-30.8165,48.31,28.74,51.040405,13.793245,117.86,4.71,3.09,3.56,3.62,3,7,5,43.55
260314,123836300,1395837516110.9,0.5099,-0.2843,-10.159,-0.2086,-2.7826,0.5565,1.6651,9.8667,-31.1048,48.31,28.74,51.040405,13.793245,117.86,4.71,3.09,3.56,3.62,3,7,5,43.55
260314,123836300,1395837516131.284,1.4709,-0.6471,-9.1294,-0.1391,-3.8956,0.4869,2.1763,10.8059,-31.2912,48.31,28.74,51.040416,13.793254,117.9,2.54,2.35,0.96,3.61,3,7,5,43.55
260314,123836300,1395837516159.166,2.1181,-0.6177,-9.5118,-1.113,-2.8521,0.4869,3.0372,10.9172,-31.6048,48.34,28.84,51.040416,13.793254,117.9,2.54,2.35,0.96,3.61,3,7,5,43.55
260314,123836400,1395837516180.0498,1.5493,-0.2157,-10.0217,-1.6695,-3.0608,0.3478,2.351,9.9491,-32.1215,48.34,28.84,51.040416,13.793254,117.9,2.54,2.35,0.96,3.61,3,7,5,43.55
260314,123836400,1395837516200.1108,0.9707,-0.6177,-9.5707,-0.4869,-2.2956,0.9739,2.8299,9.3139,-32.1365,48.34,28.84,51.040416,13.793254,117.9,2.54,2.35,0.96,3.61,3,7,5,43.55
260314,123836400,1395837516220.5168,2.4711,-0.6864,-9.2274,-0.2782,-1.3913,0.6956,3.0338,10.9973,-32.1599,48.34,28.84,51.040416,13.793254,117.9,2.54,2.35,0.96,3.61,3,7,5,43.55
260314,123836400,1395837516239.1719,2.981,-0.5197,-10.0708,-0.9043,-2.226,0.8347,3.1802,10.4703,-32.2189,48.34,28.84,51.040426,13.793263,117.94,2.54,2.35,0.96,3.61,3,7,5,43.55
260314,123836400,1395837516259.4758,1.5395,-0.5981,-9.5903,-0.7652,-2.2956,0.5565,3.0227,9.6408,-32.2157,48.28,28.87,51.040426,13.793263,117.94,2.54,2.35,0.96,3.61,3,7,5,43.55
260314,123836500,1395837516280.059,1.108,-0.6373,-9.757,-0.5565,-1.8782,0.2782,3.2722,9.6351,-32.624,48.28,28.87,51.040426,13.793263,117.94,2.54,2.35,0.96,3.61,3,7,5,43.55
260314,123836500,1395837516300.109,2.628,-0.402,-9.3745,-0.6956,-1.4608,0.7652,2.9133,11.4039,-33.5066,48.28,28.87,51.040426,13.793263,117.94,2.54,2.35,0.96,3.61,3,7,5,43.55
260314,123836500,1395837516320.511,2.8731,-1.01,-9.6295,-1.6695,-0.9043,0.626,4.0648,10.5832,-33.6266,48.28,28.87,51.040426,13.793263,117.94,2.54,2.35,0.96,3.61,3,7,5,43.55
260314,123836500,1395837516346.0579,1.412,-1.108,-9.2274,-1.8086,0.5565,0.0695,4.0322,9.5285,-33.898,48.28,28.87,51.040436,13.793272,117.99,2.54,2.35,0.96,3.61,3,7,5,43.55
260314,123836500,1395837516366.917,0.3137,-0.6766,-9.8354,-2.0869,-2.1565,0.2086,4.5675,9.3487,-33.577,48.28,29.12,51.040436,13.793272,117.99,2.54,2.35,0.96,3.61,3,7,5,43.55
260314,123836600,1395837516383.196,1.8141,-0.1961,-9.5118,-2.0869,-2.9913,0.2782,3.4251,10.0931,-33.1809,48.28,29.12,51.040436,13.793272,117.99,2.54,2.35,0.96,3.61,3,7,5,43.55
260314,123836600,1395837516399.493,2.0396,-0.9021,-9.0509,-2.1565,-1.1826,0.0695,4.5106,9.0839,-32.514,48.28,29.12,51.040436,13.793272,117.99,2.54,2.35,0.96,3.61,3,7,5,43.55
260314,123836600,1395837516420.5278,0.2745,-0.3137,-9.8256,-1.9478,-2.4347,0.1391,3.5735,9.1652,-32.536,48.28,29.12,51.040436,13.793272,117.99,2.54,2.35,0.96,3.61,3,7,5,43.55
260314,123836600,1395837516439.449,1.4022,-0.8531,-9.5412,-1.6,-2.3652,0.4869,3.5378,10.4913,-32.0152,48.28,29.12,51.040446,13.793281,118.03,2.54,2.35,0.96,3.6,3,7,5,43.55
260314,123836600,1395837516461.425,2.0102,-0.706,-9.6687,-1.9478,-3.1304,0.3478,3.6644,10.5606,-31.7644,48.15,29.17,51.040446,13.793281,118.03,2.54,2.35,0.96,3.6,3,7,5,43.55
260314,123836700,1395837516479.985,2.0592,-0.7648,-9.0117,-1.3913,0.2086,0.6956,3.7672,9.3291,-31.4185,48.15,29.17,51.040446,13.793281,118.03,2.54,2.35,0.96,3.6,3,7,5,43.55
260314,123836700,1395837516492.686,0.9511,-0.2255,-9.2961,-1.6,-1.9478,0.4173,2.9344,7.8089,-31.1908,48.15,29.17,51.040446,13.793281,118.03,2.54,2.35,0.96,3.6,3,7,5,43.55
260314,123836700,1395837516510.794,0.8237,-0.657,-10.0217,-1.4608,-2.226,0.5565,3.3813,8.6371,-30.7963,48.15,29.17,51.040446,13.793281,118.03,2.54,2.35,0.96,3.6,3,7,5,43.55
260314,123836700,1395837516530.745,2.7162,-0.4903,-9.0509,-1.8086,-0.0695,0.4869,3.5183,8.7626,-30.4835,48.15,29.17,51.040456,13.793289,118.03,2.54,2.35,0.96,3.6,3,7,5,43.55
260314,123836700,1395837516550.509,1.3532,-0.8335,-9.5118,-1.6695,1.113,0.2086,4.0103,8.7985,-30.4316,48.06,29.12,51.040456,13.793289,118.07,2.54,2.35,0.96,3.6,3,7,5,43.55
260314,123836800,1395837516572.263,1.1767,-0.6275,-10.0512,-1.3217,-2.2956,0.6956,2.9629,9.5055,-30.7138,48.06,29.12,51.040456,13.793289,118.07,2.54,2.35,0.96,3.6,3,7,5,43.55
260314,123836800,1395837516590.1511,1.4022,-0.8629,-9.3157,-1.8782,-1.1826,0.8347,3.547,10.058,-30.6692,48.06,29.12,51.040456,13.793289,118.07,2.54,2.35,0.96,3.6,3,7,5,43.55
260314,123836800,1395837516610.6611,2.7456,-0.3922,-9.4628,-1.5304,-0.2782,0.7652,2.7109,10.7123,-30.6326,48.06,29.12,51.040456,13.793289,118.07,2.54,2.35,0.96,3.6,3,7,5,43.55
260314,123836800,1395837516630.7012,1.3042,-0.7256,-9.7962,-1.0434,-1.2521,1.1826,2.9884,9.5457,-30.7839,48.06,29.12,51.040466,13.793298,118.07,2.54,2.35,0.96,3.6,3,7,5,43.55
260314,123836800,1395837516650.4631,0.6962,-0.451,-10.4238,-0.5565,-3.8956,0.9739,2.903,9.667,-30.7947,47.97,29.22,51.040466,13.793298,118.11,2.54,2.35,0.96,3.6,3,7,5,43.55
260314,123836900,1395837516670.826,2.7653,-0.657,-9.2471,-1.0434,-1.6695,0.6956,3.1919,11.1655,-30.8686,47.97,29.22,51.040466,13.793298,118.11,2.54,2.35,0.96,3.6,3,7,5,43.55
260314,123836900,1395837516690.2312,2.677,-0.4903,-9.502,-0.7652,-2.3652,0.9739,3.1043,11.1169,-31.0134,47.97,29.22,51.040466,13.793298,118.11,2.54,2.35,0.96,3.6,3,7,5,43.55
260314,123836900,1395837516710.9648,1.5885,-1.1276,-9.7177,-0.4869,-0.4869,0.9739,3.9359,10.8212,-30.9835,47.97,29.22,51.040466,13.793298,118.11,2.54,2.35,0.96,3.6,3,7,5,43.55
260314,123836900,1395837516730.832,1.8141,-0.657,-9.2961,-1.1826,-2.3652,0.626,3.5793,10.8744,-31.2468,47.97,29.22,51.040476,13.793307,118.11,4.71,3.09,3.56,3.59,3,7,5,43.55
260314,123836900,1395837516750.487,2.1475,-0.5197,-9.9237,-1.5304,-4.313,0.626,3.5541,11.0946,-31.4327,47.47,28.89,51.040476,13.793307,118.14,4.71,3.09,3.56,3.59,3,7,5,43.55
260314,123837000,1395837516770.833,2.7751,-0.6962,-9.198,-1.3913,-0.4173,0.3478,3.639,10.3631,-31.515,47.47,28.89,51.040476,13.793307,118.14,4.71,3.09,3.56,3.59,3,7,5,43.55
260314,123837000,1395837516790.209,1.363,-1.1276,-9.6785,-0.9739,-3.1304,0.6956,4.0684,9.2606,-31.4393,47.47,28.89,51.040476,13.793307,118.14,4.71,3.09,3.56,3.59,3,7,5,43.55
260314,123837000,1395837516810.7458,1.5983,-0.5491,-9.5412,-1.8782,-2.9217,0.3478,3.9443,9.7079,-31.6874,47.47,28.89,51.040476,13.793307,118.14,4.71,3.09,3.56,3.59,3,7,5,43.55
260314,123837000,1395837516830.7332,2.8437,-0.5491,-9.3647,-2.226,-3.0608,0.4173,3.6729,11.0122,-31.5622,47.47,28.89,51.040486,13.793315,118.14,4.71,3.09,3.56,3.59,3,7,5,43.55
260314,123837000,1395837516850.455,1.8631,-0.3334,-9.2274,-2.3652,-3.2,0.2086,3.4318,9.9557,-31.5285,47.47,28.64,51.040486,13.793315,118.18,4.71,3.09,3.56,3.59,3,7,5,43.55
260314,123837100,1395837516870.833,0.9021,-0.6471,-10.2669,-1.1826,-4.2434,0.9739,3.258,9.9017,-31.5328,47.47,28.64,51.040486,13.793315,118.18,4.71,3.09,3.56,3.59,3,7,5,43.55
260314,123837100,1395837516890.218,2.0788,-0.7256,-9.8844,-1.3913,-2.5043,0.4869,3.5279,10.8779,-31.6222,47.47,28.64,51.040486,13.793315,118.18,4.71,3.09,3.56,3.59,3,7,5,43.55
260314,123837100,1395837516911.0562,2.7751,-0.2451,-8.796,-1.6695,-2.2956,0.626,3.4011,10.3363,-31.6414,47.47,28.64,51.040486,13.793315,118.18,4.71,3.09,3.56,3.59,3,7,5,43.55
260314,123837100,1395837516930.726,0.5197,-0.353,-9.1882,-2.2956,-2.5043,0.1391,3.9504,8.087,-31.6015,47.47,28.64,51.040497,13.793324,118.18,4.71,3.09,3.56,3.58,3,7,5,43.55
260314,123837100,1395837516950.3838,0.755,-0.4314,-9.4236,-1.6695,-1.6695,0.7652,3.42,8.9734,-31.6364,47.4799,28.28,51.040497,13.793324,118.21,4.71,3.09,3.56,3.58,3,7,5,43.55
260314,123837200,1395837516970.8828,2.1377,-0.6177,-9.0313,-1.6,-3.2,0.4869,4.0527,9.7078,-31.2142,47.4799,28.28,51.040497,13.793324,118.21,4.71,3.09,3.56,3.58,3,7,5,43.55
260314,123837200,1395837516991.126,1.971,-0.5785,-9.7962,-1.6695,-2.3652,0.7652,3.7715,10.5529,-31.1869,47.4799,28.28,51.040497,13.793324,118.21,4.71,3.09,3.56,3.58,3,7,5,43.55
260314,123837200,1395837517010.9639,2.2455,-0.3334,-9.4922,-1.0434,2.226,0.3478,3.0584,10.4294,-31.4519,47.4799,28.28,51.040497,13.793324,118.21,4.71,3.09,3.56,3.58,3,7,5,43.55
260314,123837200,1395837517030.735,1.6572,-0.6668,-10.2375,-0.3478,-3.826,0.9739,2.3301,11.2452,-31.7187,47.4799,28.28,51.040506,13.793332,118.21,4.71,3.09,3.56,3.58,3,7,5,43.55
260314,123837200,1395837517050.3809,2.2553,-0.6766,-11.3554,-0.7652,-5.9826,1.113,2.655,11.3659,-31.8703,47.43,28.14,51.040506,13.793332,118.25,4.71,3.09,3.56,3.58,3,7,5,43.55
260314,123837300,1395837517070.8599,3.1085,-0.8335,-9.9237,-1.2521,2.2956,0.4173,2.8482,11.0197,-31.8806,47.43,28.14,51.040506,13.793332,118.25,4.71,3.09,3.56,3.58,3,7,5,43.55
260314,123837300,1395837517090.376,1.6376,-0.402,-10.1688,-1.8086,-3.2695,0.5565,2.755,9.8107,-32.1714,47.43,28.14,51.040506,13.793332,118.25,4.71,3.09,3.56,3.58,3,7,5,43.55
260314,123837300,1395837517111.0261,1.2257,-0.6766,-12.2869,-1.3913,-8.2782,0.9043,2.7012,10.6569,-31.6342,47.43,28.14,51.040506,13.793332,118.25,4.71,3.09,3.56,3.58,3,7,5,43.55
260314,123837300,1395837517130.6592,3.4125,-1.1276,-9.3745,-1.9478,-1.5304,0.6956,4.1975,12.0539,-31.4103,47.43,28.14,51.040516,13.793341,118.25,4.71,3.09,3.56,3.57,3,7,5,43.55
260314,123837300,1395837517159.55,3.3438,-0.5295,-9.551,-1.9478,-6.6782,0.4869,3.6026,11.9194,-31.7838,47.38,28.4,51.040516,13.793341,118.32,4.71,3.09,3.56,3.57,3,7,5,43.55
260314,123837400,1395837517180.571,0.9609,-0.7746,-11.0318,-1.5304,-9.113,0.9043,3.3987,11.5534,-32.1487,47.38,28.4,51.040516,13.793341,118.32,4.71,3.09,3.56,3.57,3,7,5,43.55
260314,123837400,1395837517192.6501,2.4417,-0.451,-9.1784,-1.3217,-5.7043,0.6956,2.9544,12.5,-32.3318,47.38,28.4,51.040516,13.793341,118.32,4.71,3.09,3.56,3.57,3,7,5,43.55
260314,123837400,1395837517210.825,2.6574,-0.6766,-9.5412,-0.5565,-7.5826,0.9739,3.0084,11.7478,-32.192,47.38,28.4,51.040516,13.793341,118.32,4.71,3.09,3.56,3.57,3,7,5,43.55
260314,123837400,1395837517230.7588,0.8531,-0.9315,-10.5611,-1.1826,-6.5391,0.626,4.0922,8.9922,-31.912,47.38,28.4,51.040526,13.793349,118.32,2.54,2.35,0.96,3.57,3,7,5,43.55
260314,123837400,1395837517259.1108,1.4218,-0.8825,-8.8352,-1.8782,-1.6,0.6956,5.1103,8.0286,-31.6501,47.38,28.3,51.040526,13.793349,118.37,2.54,2.35,0.96,3.57,3,7,5,43.55
260314,123837500,1395837517279.592,0.9904,-0.3235,-10.1492,-1.5304,-6.8869,0.7652,3.4014,8.3123,-31.7496,47.38,28.3,51.040526,13.793349,118.37,2.54,2.35,0.96,3.57,3,7,5,43.55
260314,123837500,1395837517300.022,2.677,-0.4706,-9.6785,-1.6695,-3.1304,0.626,4.0914,9.0193,-31.4359,47.38,28.3,51.040526,13.793349,118.37,2.54,2.35,0.96,3.57,3,7,5,43.55
260314,123837500,1395837517320.537,0.0392,-0.3039,-9.4138,-1.6695,0.5565,0.4869,3.379,7.3894,-31.6037,47.38,28.3,51.040526,13.793349,118.37,2.54,2.35,0.96,3.57,3,7,5,43.55
260314,123837500,1395837517339.468,0.7942,-0.6275,-9.0411,-1.9478,-2.4347,0.5565,3.6748,8.806,-31.5176,47.38,28.3,51.040536,13.793358,118.37,2.54,2.35,0.96,3.57,3,7,5,43.55
260314,123837500,1395837517355.915,2.0788,-0.755,-9.2274,-1.4608,-2.5739,0.5565,4.0539,9.0318,-31.476,47.37,28.61,51.040536,13.793358,118.44,2.54,2.35,0.96,3.57,3,7,5,43.55
260314,123837600,1395837517371.304,2.1671,-0.5589,-9.1294,-2.0173,-1.6695,0.4869,4.6528,9.8299,-31.8859,47.37,28.61,51.040536,13.793358,118.44,2.54,2.35,0.96,3.57,3,7,5,43.55
260314,123837600,1395837517390.356,0.804,-0.5785,-8.8352,-1.4608,-2.0869,0.8347,3.1118,9.2992,-32.348,47.37,28.61,51.040536,13.793358,118.44,2.54,2.35,0.96,3.57,3,7,5,43.55
260314,123837600,1395837517410.961,0.9511,-1.0296,-9.2863,-1.7391,-3.0608,0.7652,3.9478,10.1236,-32.2918,47.37,28.61,51.040536,13.793358,118.44,2.54,2.35,0.96,3.57,3,7,5,43.55
260314,123837600,1395837517431.0251,2.0494,-0.3235,-9.6001,-1.7391,-4.8695,0.8347,3.2316,10.6154,-32.5408,47.37,28.61,51.040546,13.793367,118.44,4.71,3.08,3.56,3.56,3,7,5,43.55
260314,123837600,1395837517454.631,2.6378,-0.9315,-8.6489,-0.6956,0.2782,0.7652,3.6986,9.4468,-32.0294,47.67,28.8,51.040546,13.793367,118.52,4.71,3.08,3.56,3.56,3,7,5,43.55
260314,123837700,1395837517470.9102,1.01,-0.5589,-8.845,-1.4608,-0.4869,0.5565,3.9364,8.759,-31.9158,47.67,28.8,51.040546,13.793367,118.52,4.71,3.08,3.56,3.56,3,7,5,43.55
260314,123837700,1395837517490.3892,2.0004,-0.5491,-9.7079,-2.0173,-4.2434,0.5565,3.6343,10.2669,-31.741,47.67,28.8,51.040546,13.793367,118.52,4.71,3.08,3.56,3.56,3,7,5,43.55
260314,123837700,1395837517511.051,1.3336,-0.5687,-10.4532,-2.5739,-1.5304,0.7652,3.9734,9.368,-31.3798,47.67,28.8,51.040546,13.793367,118.52,4.71,3.08,3.56,3.56,3,7,5,43.55
260314,123837700,1395837517530.668,1.4807,-0.7648,-8.6685,-2.5043,2.5043,0.5565,4.4067,9.1919,-31.0766,47.67,28.8,51.040557,13.793377,118.52,4.72,3.09,3.56,3.56,3,7,5,43.55
260314,123837700,1395837517555.271,0.9806,-0.402,-10.2277,-2.5043,-4.8,0.626,3.2039,10.1524,-31.2203,48.04,29.1,51.040557,13.793377,118.6,4.72,3.09,3.56,3.56,3,7,5,43.55
260314,123837800,1395837517572.16,1.7454,-0.7354,-10.6787,-2.0173,-3.6173,0.3478,3.6563,10.4561,-30.8905,48.04,29.1,51.040557,13.793377,118.6,4.72,3.09,3.56,3.56,3,7,5,43.55
260314,123837800,1395837517590.376,2.7358,-0.7648,-9.149,-2.0173,-0.8347,0.4173,3.1556,11.2649,-31.2914,48.04,29.1,51.040557,13.793377,118.6,4.72,3.09,3.56,3.56,3,7,5,43.55
260314,123837800,1395837517611.329,1.3042,-0.5393,-9.8158,-2.226,-3.2695,0.1391,3.1608,9.1515,-31.3953,48.04,29.1,51.040557,13.793377,118.6,4.72,3.09,3.56,3.56,3,7,5,43.55
260314,123837800,1395837517630.75,0.9315,-0.2549,-10.1394,-2.3652,-4.1043,0.3478,2.7313,10.0636,-31.5142,48.04,29.1,51.040567,13.793385,118.6,4.71,3.09,3.56,3.55,3,7,5,43.55
260314,123837800,1395837517656.389,2.9418,-0.4903,-9.1,-2.226,-0.6956,-0.0695,2.8253,12.0517,-31.2434,48.07,28.94,51.040567,13.793385,118.67,4.71,3.09,3.56,3.55,3,7,5,43.55
260314,123837900,1395837517671.189,2.9516,-0.0588,-8.3841,-1.9478,-1.1826,-0.2086,2.6195,10.7714,-31.1303,48.07,28.94,51.040567,13.793385,118.67,4.71,3.09,3.56,3.55,3,7,5,43.55
260314,123837900,1395837517690.1729,0.7746,-0.6471,-9.9629,-2.0173,-2.226,-0.1391,2.8696,10.0917,-30.9921,48.07,28.94,51.040567,13.793385,118.67,4.71,3.09,3.56,3.55,3,7,5,43.55
260314,123837900,1395837517718.431,1.5689,-0.2059,-9.502,-2.3652,-2.5739,-0.2782,2.3876,10.929,-31.0042,48.07,28.94,51.040567,13.793385,118.67,4.71,3.09,3.56,3.55,3,7,5,43.55
260314,123837900,1395837517731.009,1.6572,-0.1274,-9.2667,-1.5304,-1.9478,-0.0695,1.6396,10.4159,-30.2856,48.07,28.94,51.040578,13.793394,118.67,4.71,3.09,3.56,3.55,3,7,5,43.55
260314,123837900,1395837517751.8762,2.7358,-0.4412,-9.2863,-1.3913,-2.0869,-0.0695,2.1218,10.4955,-30.0425,48.13,28.87,51.040578,13.793394,118.74,4.71,3.09,3.56,3.55,3,7,5,43.55
260314,123838000,1395837517770.9329,0.8433,-0.4412,-9.6981,-2.0869,-2.5043,-0.4173,2.2338,8.5541,-29.9329,48.13,28.87,51.040578,13.793394,118.74,4.71,3.09,3.56,3.55,3,7,5,43.55
260314,123838000,1395837517790.3718,1.1375,0.0196,-10.0119,-2.713,-2.226,-0.5565,2.2896,8.9198,-29.8194,48.13,28.87,51.040578,13.793394,118.74,4.71,3.09,3.56,3.55,3,7,5,43.55
260314,123838000,1395837517810.3372,2.9516,-0.3235,-8.9431,-2.0869,0.8347,-0.2086,2.0686,9.381,-29.377,48.13,28.87,51.040578,13.793394,118.74,4.71,3.09,3.56,3.55,3,7,5,43.55
260314,123838000,1395837517836.6958,2.1377,0.1078,-9.1098,-2.3652,-1.8782,-0.7652,1.573,9.9142,-29.3488,48.13,28.87,51.040588,13.793403,118.74,4.71,3.09,3.56,3.54,3,7,5,43.55
260314,123838000,1395837517860.6118,1.0394,-0.2451,-9.5707,-1.2521,-2.3652,-0.4173,0.9256,10.6346,-29.4968,48.08,28.46,51.040588,13.793403,118.79,4.71,3.09,3.56,3.54,3,7,5,43.55
260314,123838100,1395837517879.963,2.5887,-0.3334,-9.0313,-1.7391,-1.7391,-0.4173,1.1501,11.5286,-29.9278,48.08,28.46,51.040588,13.793403,118.79,4.71,3.09,3.56,3.54,3,7,5,43.55
260314,123838100,1395837517900.0781,3.0889,-0.098,-8.9235,-1.8086,-0.8347,-0.7652,0.8837,11.0297,-30.1352,48.08,28.46,51.040588,13.793403,118.79,4.71,3.09,3.56,3.54,3,7,5,43.55
260314,123838100,1395837517914.9712,0.755,-0.2353,-9.9335,-1.8086,-0.2086,-1.2521,0.7389,9.3729,-30.2954,48.08,28.46,51.040588,13.793403,118.79,4.71,3.09,3.56,3.54,3,7,5,43.55
260314,123838100,1395837517930.674,1.6866,-0.3137,-9.8746,-1.6695,-2.3652,-0.6956,0.8507,9.6031,-30.2142,48.08,28.46,51.040599,13.793411,118.79,4.71,3.09,3.56,3.54,3,7,5,43.55
260314,123838100,1395837517959.114,1.8925,-0.353,-10.414,-2.3652,-2.3652,-0.9739,1.8422,10.0727,-29.1533,48.04,28.18,51.040599,13.793411,118.86,4.71,3.09,3.56,3.54,3,6,5,43.55
260314,123838200,1395837517971.154,2.5986,0.0784,-9.757,-2.226,-2.1565,-1.113,0.9305,12.0176,-29.2616,48.04,28.18,51.040599,13.793411,118.86,4.71,3.09,3.56,3.54,3,6,5,43.55
260314,123838200,1395837517990.167,0.8825,-0.2843,-9.7276,-2.2956,-2.0869,-1.1826,0.7307,12.1213,-29.3305,48.04,28.18,51.040599,13.793411,118.86,4.71,3.09,3.56,3.54,3,6,5,43.55
260314,123838200,1395837518010.4548,1.5787,-0.5295,-9.7766,-2.0173,-3.4782,-1.113,0.6708,12.2146,-29.41,48.04,28.18,51.040599,13.793411,118.86,4.71,3.09,3.56,3.54,3,6,5,43.55
260314,123838200,1395837518030.8982,2.5201,-0.2353,-9.8746,-1.7391,-5.0782,-0.9739,0.6301,12.1387,-29.476,48.04,28.18,51.040609,13.793419,118.86,4.71,3.09,3.56,3.53,3,6,5,43.55
260314,123838200,1395837518059.053,3.03,-0.1667,-9.6197,-2.0173,1.113,-1.4608,0.3231,10.6178,-29.7311,47.74,27.94,51.040609,13.793419,118.93,4.71,3.09,3.56,3.53,3,6,5,43.55
260314,123838300,1395837518070.983,2.0102,-0.0686,-8.4233,-2.2956,-0.5565,-1.8782,0.3525,10.8502,-29.7687,47.74,27.94,51.040609,13.793419,118.93,4.71,3.09,3.56,3.53,3,6,5,43.55
260314,123838300,1395837518090.446,2.1671,0.2255,-9.9531,-2.0869,-6.1913,-1.2521,0.218,10.8477,-29.8323,47.74,27.94,51.040609,13.793419,118.93,4.71,3.09,3.56,3.53,3,6,5,43.55
260314,123838300,1395837518110.178,2.5887,-0.2745,-10.9435,-2.1565,-1.5304,-1.5304,0.1996,10.7012,-29.8701,47.74,27.94,51.040609,13.793419,118.93,4.71,3.09,3.56,3.53,3,6,5,43.55
260314,123838300,1395837518130.728,1.6474,0.3039,-8.9431,-2.1565,0.3478,-1.7391,0.107,10.6219,-29.9241,47.74,27.94,51.040619,13.793428,118.93,4.71,3.09,3.56,3.53,3,6,5,43.55
260314,123838300,1395837518159.06,0.6079,0.1078,-10.7572,-2.2956,-6.4695,-1.4608,0.0994,10.6449,-29.9721,47.69,27.61,51.040619,13.793428,119.0,4.71,3.09,3.56,3.53,3,6,5,43.55
260314,123838400,1395837518170.8628,2.4515,0.0,-10.1786,-1.9478,-3.4086,-1.1826,0.0875,10.7828,-30.0246,47.69,27.61,51.040619,13.793428,119.0,4.71,3.09,3.56,3.53,3,6,5,43.55
260314,123838400,1395837518190.426,3.2065,-0.3137,-8.188,-2.1565,-0.2086,-1.4608,0.1192,10.7276,-30.0596,47.69,27.61,51.040619,13.793428,119.0,4.71,3.09,3.56,3.53,3,6,5,43.55
260314,123838400,1395837518210.467,0.8433,0.2059,-7.58,-1.8782,-0.5565,-1.4608,0.0498,10.4821,-30.1276,47.69,27.61,51.040619,13.793428,119.0,4.71,3.09,3.56,3.53,3,6,5,43.55
260314,123838400,1395837518230.752,1.1767,0.5491,-8.9627,-1.8782,-4.5217,-1.6695,-0.0316,10.5538,-30.2143,47.69,27.61,51.04063,13.793436,119.0,2.54,2.35,0.96,3.53,3,6,5,43.55
260314,123838400,1395837518252.0708,2.9418,0.147,-9.1392,-0.5565,0.7652,-1.3913,-0.1493,10.4847,-30.2811,47.69,27.63,51.04063,13.793436,119.05,2.54,2.35,0.96,3.53,3,6,5,43.55
260314,123838500,1395837518271.2368,2.3436,-0.2157,-8.7469,-0.626,0.2782,-1.3913,-0.152,10.4527,-30.3308,47.69,27.63,51.04063,13.793436,119.05,2.54,2.35,0.96,3.53,3,6,5,43.55
260314,123838500,1395837518290.4329,0.4216,0.147,-10.8062,-0.626,-3.1304,-1.4608,-0.1494,10.4526,-30.389,47.69,27.63,51.04063,13.793436,119.05,2.54,2.35,0.96,3.53,3,6,5,43.55
260314,123838500,1395837518310.174,2.0396,-0.1568,-9.5412,-1.5304,-1.4608,-1.6,-0.1016,10.6462,-30.4426,47.69,27.63,51.04063,13.793436,119.05,2.54,2.35,0.96,3.53,3,6,5,43.55
260314,123838500,1395837518330.769,2.1965,0.1274,-9.8256,-1.2521,-2.9913,-1.3217,-0.1212,10.6708,-30.501,47.69,27.63,51.04064,13.793445,119.05,2.54,2.35,0.96,3.53,3,6,5,43.55
260314,123838500,1395837518352.4648,2.4024,-0.5393,-10.4042,-1.3913,-0.9043,-1.4608,-0.0758,10.5201,-30.6314,47.62,27.89,51.04064,13.793445,119.11,2.54,2.35,0.96,3.53,3,6,5,43.55
260314,123838600,1395837518371.24,0.6275,-0.0098,-10.8258,-1.3913,-3.7565,-1.0434,-0.1684,10.5732,-30.7679,47.62,27.89,51.04064,13.793445,119.11,2.54,2.35,0.96,3.53,3,6,5,43.55
260314,123838600,1395837518390.436,3.3438,-0.755,-9.9727,-1.6695,-2.9913,-1.3913,-0.1919,10.721,-30.8863,47.62,27.89,51.04064,13.793445,119.11,2.54,2.35,0.96,3.53,3,6,5,43.55
260314,123838600,1395837518410.44,4.2852,0.6962,-8.6783,-1.7391,-4.2434,-1.5304,-0.2566,10.7576,-31.0079,47.62,27.89,51.04064,13.793445,119.11,2.54,2.35,0.96,3.53,3,6,5,43.55
260314,123838600,1395837518431.031,1.5689,0.0784,-10.208,-1.5304,-6.6782,-1.3913,-0.3815,10.6149,-31.1739,47.62,27.89,51.04065,13.793454,119.11,2.54,2.35,0.96,3.53,3,6,5,43.55
260314,123838600,1395837518459.038,-1.1375,-1.0198,-8.8254,-2.7826,-5.8434,-1.5304,-0.2435,10.5629,-31.2137,47.52,28.14,51.04065,13.793454,119.17,2.54,2.35,0.96,3.53,3,6,5,43.55
260314,123838700,1395837518470.877,2.8045,-2.2946,-8.6783,-4.5913,-4.8,-1.5304,-0.0335,10.4736,-31.2284,47.52,28.14,51.04065,13.793454,119.17,2.54,2.35,0.96,3.53,3,6,5,43.55
260314,123838700,1395837518490.4739,2.4613,0.7648,-11.9927,-6.1217,-6.8173,-2.0869,-0.138,10.3279,-31.3295,47.52,28.14,51.04065,13.793454,119.17,2.54,2.35,0.96,3.53,3,6,5,43.55
260314,123838700,1395837518510.169,1.8043,0.0588,-12.434,-4.313,-3.3391,-1.8782,-0.4167,10.2359,-31.4796,47.52,28.14,51.04065,13.793454,119.17,2.54,2.35,0.96,3.53,3,6,5,43.56
260314,123838700,1395837518530.886,1.6081,1.765,-10.718,-0.7652,-5.2869,-1.2521,-0.7192,10.3382,-31.5825,47.52,28.14,51.04066,13.793463,119.17,4.71,3.08,3.56,3.52,3,6,5,43.56
260314,123838700,1395837518559.125,-0.3922,-0.0392,-7.6389,1.7391,-1.6695,-1.1826,-0.8454,10.0791,-31.6279,47.44,28.4,51.04066,13.793463,119.25,4.71,3.08,3.56,3.52,3,6,5,43.56
260314,123838800,1395837518578.278,3.3536,-0.1961,-8.7175,0.3478,-4.7304,-1.9478,-0.6497,10.1171,-31.6113,47.44,28.4,51.04066,13.793463,119.25,4.71,3.08,3.56,3.52,3,6,5,43.56
260314,123838800,1395837518590.46,2.2946,0.8139,-12.738,0.3478,-3.2695,-1.3913,-0.6252,10.1146,-31.5879,47.44,28.4,51.04066,13.793463,119.25,4.71,3.08,3.56,3.52,3,6,5,43.56
260314,123838800,1395837518610.517,2.3926,0.4118,-10.6395,1.8782,-0.7652,-1.0434,-0.6448,10.1562,-31.5268,47.44,28.4,51.04066,13.793463,119.25,4.71,3.08,3.56,3.52,3,6,5,43.56
260314,123838800,1395837518630.773,3.3046,-1.1473,-7.9625,0.626,-4.2434,-0.4869,-0.452,10.0748,-31.4493,47.44,28.4,51.04067,13.793471,119.25,4.71,3.08,3.56,3.52,3,6,5,43.56
260314,123838800,1395837518653.0818,1.3924,-0.7452,-9.6099,-1.4608,-4.8695,-1.5304,1.5843,11.1917,-30.9494,47.38,28.59,51.04067,13.793471,119.33,4.71,3.08,3.56,3.52,3,6,5,43.56
260314,123838900,1395837518671.234,-0.402,0.5197,-9.1882,-2.0869,-4.8695,-1.9478,1.4648,11.4311,-31.0129,47.38,28.59,51.04067,13.793471,119.33,4.71,3.08,3.56,3.52,3,6,5,43.56
260314,123838900,1395837518690.2659,3.7066,-0.6668,-8.7077,-1.3913,-1.1826,-1.8782,1.5453,11.3173,-31.0188,47.38,28.59,51.04067,13.793471,119.33,4.71,3.08,3.56,3.52,3,6,5,43.56
260314,123838900,1395837518710.222,-1.1767,1.1865,-12.1693,0.5565,-7.1652,-1.4608,1.3835,11.2014,-31.0656,47.38,28.59,51.04067,13.793471,119.33,4.71,3.08,3.56,3.52,3,6,5,43.56
260314,123838900,1395837518730.8281,3.2948,0.3334,-9.1098,0.4173,-1.113,-0.7652,1.38,11.1815,-31.0648,47.38,28.59,51.04068,13.79348,119.33,4.71,3.08,3.56,3.51,3,6,5,43.56
260314,123838900,1395837518753.721,0.0294,0.6079,-9.8746,0.0,-10.5043,-0.8347,1.0102,12.3432,-31.0985,47.3,28.83,51.04068,13.79348,119.39,4.71,3.08,3.56,3.51,3,6,5,43.56
260314,123839000,1395837518771.2861,4.1969,0.5393,-8.6685,-1.3913,-1.6,-0.9043,1.4634,13.9499,-30.8233,47.3,28.83,51.04068,13.79348,119.39,4.71,3.08,3.56,3.51,3,6,5,43.56
260314,123839000,1395837518790.438,2.6868,-0.2451,-7.9134,1.1826,5.2173,-0.626,0.7482,12.2046,-30.7668,47.3,28.83,51.04068,13.79348,119.39,4.71,3.08,3.56,3.51,3,6,5,43.56
260314,123839000,1395837518810.518,-0.5197,-0.6275,-10.4924,0.626,-5.426,-0.5565,1.4482,12.1782,-30.4145,47.3,28.83,51.04068,13.79348,119.39,4.71,3.08,3.56,3.51,3,6,5,43.56
260314,123839000,1395837518830.949,2.7064,-0.3726,-10.5316,0.2782,-1.5304,-0.7652,1.7347,13.1146,-30.0007,47.3,28.83,51.040691,13.79349,119.39,4.71,3.08,3.56,3.49,3,6,5,43.56
